%time,field.header.seq,field.header.stamp,field.header.frame_id,field.orientation.x,field.orientation.y,field.orientation.z,field.orientation.w,field.orientation_covariance0,field.orientation_covariance1,field.orientation_covariance2,field.orientation_covariance3,field.orientation_covariance4,field.orientation_covariance5,field.orientation_covariance6,field.orientation_covariance7,field.orientation_covariance8,field.angular_velocity.x,field.angular_velocity.y,field.angular_velocity.z,field.angular_velocity_covariance0,field.angular_velocity_covariance1,field.angular_velocity_covariance2,field.angular_velocity_covariance3,field.angular_velocity_covariance4,field.angular_velocity_covariance5,field.angular_velocity_covariance6,field.angular_velocity_covariance7,field.angular_velocity_covariance8,field.linear_acceleration.x,field.linear_acceleration.y,field.linear_acceleration.z,field.linear_acceleration_covariance0,field.linear_acceleration_covariance1,field.linear_acceleration_covariance2,field.linear_acceleration_covariance3,field.linear_acceleration_covariance4,field.linear_acceleration_covariance5,field.linear_acceleration_covariance6,field.linear_acceleration_covariance7,field.linear_acceleration_covariance8
1583763060238157610,825,1583763055213393013,imu,-0.0252075381577,-0.00390625279397,6.10351999057e-05,0.999695539474,0.0,0.0,0.0,0.0,0.0,0.0,0.0,0.0,0.0,0.0,0.0,0.0,0.0,0.0,0.0,0.0,0.0,0.0,0.0,0.0,0.0,0.0,0.0195312574506,0.0195312574506,0.0,0.0,0.0,0.0,0.0,0.0,0.0,0.0,0.0
1583763060238186019,826,1583763055253393013,imu,-0.0252075381577,-0.00390625279397,6.10351999057e-05,0.999695539474,0.0,0.0,0.0,0.0,0.0,0.0,0.0,0.0,0.0,0.0,0.0,0.0,0.0,0.0,0.0,0.0,0.0,0.0,0.0,0.0,0.0,0.0,0.0195312574506,0.0195312574506,0.0,0.0,0.0,0.0,0.0,0.0,0.0,0.0,0.0
1583763060238209847,827,1583763055312393013,imu,-0.0251465030015,-0.00384521763772,6.10351999057e-05,0.999695539474,0.0,0.0,0.0,0.0,0.0,0.0,0.0,0.0,0.0,0.0,0.0,0.0,0.0,0.0,0.0,0.0,0.0,0.0,0.0,0.0,0.0,0.0,0.0195312574506,0.0195312574506,0.0,0.0,0.0,0.0,0.0,0.0,0.0,0.0,0.0
1583763060238246146,828,1583763055352393013,imu,-0.0251465030015,-0.00384521763772,6.10351999057e-05,0.999695539474,0.0,0.0,0.0,0.0,0.0,0.0,0.0,0.0,0.0,0.0,0.0,0.0,0.0,0.0,0.0,0.0,0.0,0.0,0.0,0.0,0.0,0.0,0.0117187537253,0.0117187537253,0.0,0.0,0.0,0.0,0.0,0.0,0.0,0.0,0.0
1583763060238256910,829,1583763055413393013,imu,-0.0250854678452,-0.00384521763772,6.10351999057e-05,0.999695539474,0.0,0.0,0.0,0.0,0.0,0.0,0.0,0.0,0.0,0.0,0.0,0.0,0.0,0.0,0.0,0.0,0.0,0.0,0.0,0.0,0.0,0.0,0.0117187537253,0.0117187537253,0.0,0.0,0.0,0.0,0.0,0.0,0.0,0.0,0.0
1583763060238292279,830,1583763055452393013,imu,-0.0250854678452,-0.00384521763772,6.10351999057e-05,0.999695539474,0.0,0.0,0.0,0.0,0.0,0.0,0.0,0.0,0.0,0.0,0.0,0.0,0.0,0.0,0.0,0.0,0.0,0.0,0.0,0.0,0.0,0.0,0.0117187537253,-0.0273437593132,0.0,0.0,0.0,0.0,0.0,0.0,0.0,0.0,0.0
1583763060238336232,831,1583763055513393013,imu,-0.0250854678452,-0.00390625279397,6.10351999057e-05,0.999695539474,0.0,0.0,0.0,0.0,0.0,0.0,0.0,0.0,0.0,0.0,0.0,0.0,0.0,0.0,0.0,0.0,0.0,0.0,0.0,0.0,0.0,0.0,0.0117187537253,-0.0273437593132,0.0,0.0,0.0,0.0,0.0,0.0,0.0,0.0,0.0
1583763060238364234,832,1583763055553393013,imu,-0.0250854678452,-0.00390625279397,6.10351999057e-05,0.999695539474,0.0,0.0,0.0,0.0,0.0,0.0,0.0,0.0,0.0,0.0,0.0,0.0,0.0,0.0,0.0,0.0,0.0,0.0,0.0,0.0,0.0,0.0,0.0117187537253,0.0117187537253,0.0,0.0,0.0,0.0,0.0,0.0,0.0,0.0,0.0
1583763060238394063,833,1583763055613393013,imu,-0.0251465030015,-0.00390625279397,6.10351999057e-05,0.999695539474,0.0,0.0,0.0,0.0,0.0,0.0,0.0,0.0,0.0,0.0,0.0,0.0,0.0,0.0,0.0,0.0,0.0,0.0,0.0,0.0,0.0,0.0,0.0117187537253,0.0117187537253,0.0,0.0,0.0,0.0,0.0,0.0,0.0,0.0,0.0
1583763060238410040,834,1583763055653393013,imu,-0.0251465030015,-0.00390625279397,6.10351999057e-05,0.999695539474,0.0,0.0,0.0,0.0,0.0,0.0,0.0,0.0,0.0,0.0,0.0,0.0,0.0,0.0,0.0,0.0,0.0,0.0,0.0,0.0,0.0,0.0,0.0117187537253,0.0117187537253,0.0,0.0,0.0,0.0,0.0,0.0,0.0,0.0,0.0
1583763060238431152,835,1583763055713393013,imu,-0.0251465030015,-0.00384521763772,0.000549316813704,0.999695539474,0.0,0.0,0.0,0.0,0.0,0.0,0.0,0.0,0.0,0.0,0.0,0.0,0.0,0.0,0.0,0.0,0.0,0.0,0.0,0.0,0.0,0.0,0.0117187537253,0.0117187537253,0.0,0.0,0.0,0.0,0.0,0.0,0.0,0.0,0.0
1583763060238459624,836,1583763055753393013,imu,-0.0251465030015,-0.00384521763772,0.000549316813704,0.999695539474,0.0,0.0,0.0,0.0,0.0,0.0,0.0,0.0,0.0,0.0,0.0,0.0,0.0,0.0,0.0,0.0,0.0,0.0,0.0,0.0,0.0,0.0664062723517,0.292968869209,0.0117187537253,0.0,0.0,0.0,0.0,0.0,0.0,0.0,0.0,0.0
1583763060238474938,837,1583763055813393013,imu,-0.024780292064,-0.00384521763772,0.000732422398869,0.999695539474,0.0,0.0,0.0,0.0,0.0,0.0,0.0,0.0,0.0,0.0,0.0,0.0,0.0,0.0,0.0,0.0,0.0,0.0,0.0,0.0,0.0,0.0664062723517,0.292968869209,0.0117187537253,0.0,0.0,0.0,0.0,0.0,0.0,0.0,0.0,0.0
1583763060238495573,838,1583763055853393013,imu,-0.024780292064,-0.00384521763772,0.000732422398869,0.999695539474,0.0,0.0,0.0,0.0,0.0,0.0,0.0,0.0,0.0,0.0,0.0,0.0,0.0,0.0,0.0,0.0,0.0,0.0,0.0,0.0,0.0,0.0273437593132,0.0859375298023,0.00390625139698,0.0,0.0,0.0,0.0,0.0,0.0,0.0,0.0,0.0
1583763060238511420,839,1583763055913393013,imu,-0.0241089034826,-0.00396728795022,0.000915527984034,0.999695539474,0.0,0.0,0.0,0.0,0.0,0.0,0.0,0.0,0.0,0.0,0.0,0.0,0.0,0.0,0.0,0.0,0.0,0.0,0.0,0.0,0.0,0.0273437593132,0.0859375298023,0.00390625139698,0.0,0.0,0.0,0.0,0.0,0.0,0.0,0.0,0.0
1583763060238542996,840,1583763055953393013,imu,-0.0241089034826,-0.00396728795022,0.000915527984034,0.999695539474,0.0,0.0,0.0,0.0,0.0,0.0,0.0,0.0,0.0,0.0,0.0,0.0,0.0,0.0,0.0,0.0,0.0,0.0,0.0,0.0,0.0,-0.00781250279397,0.105468787253,-0.0273437593132,0.0,0.0,0.0,0.0,0.0,0.0,0.0,0.0,0.0
1583763060238565981,841,1583763056014393013,imu,-0.0233154464513,-0.00402832310647,0.00128173921257,0.999695539474,0.0,0.0,0.0,0.0,0.0,0.0,0.0,0.0,0.0,0.0,0.0,0.0,0.0,0.0,0.0,0.0,0.0,0.0,0.0,0.0,0.0,-0.00781250279397,0.105468787253,-0.0273437593132,0.0,0.0,0.0,0.0,0.0,0.0,0.0,0.0,0.0
1583763060238584712,842,1583763056053393013,imu,-0.0233154464513,-0.00402832310647,0.00128173921257,0.999695539474,0.0,0.0,0.0,0.0,0.0,0.0,0.0,0.0,0.0,0.0,0.0,0.0,0.0,0.0,0.0,0.0,0.0,0.0,0.0,0.0,0.0,0.0195312574506,0.0898437798023,0.0117187537253,0.0,0.0,0.0,0.0,0.0,0.0,0.0,0.0,0.0
1583763060238607383,843,1583763056113393013,imu,-0.0225830245763,-0.00402832310647,0.00146484479774,0.999756574631,0.0,0.0,0.0,0.0,0.0,0.0,0.0,0.0,0.0,0.0,0.0,0.0,0.0,0.0,0.0,0.0,0.0,0.0,0.0,0.0,0.0,0.0195312574506,0.0898437798023,0.0117187537253,0.0,0.0,0.0,0.0,0.0,0.0,0.0,0.0,0.0
1583763060238631868,844,1583763056153393013,imu,-0.0225830245763,-0.00402832310647,0.00146484479774,0.999756574631,0.0,0.0,0.0,0.0,0.0,0.0,0.0,0.0,0.0,0.0,0.0,0.0,0.0,0.0,0.0,0.0,0.0,0.0,0.0,0.0,0.0,-0.00781250279397,0.0820312798023,0.0507812686265,0.0,0.0,0.0,0.0,0.0,0.0,0.0,0.0,0.0
1583763060238657010,845,1583763056212393013,imu,-0.0217285305262,-0.00427246419713,0.00170898553915,0.999756574631,0.0,0.0,0.0,0.0,0.0,0.0,0.0,0.0,0.0,0.0,0.0,0.0,0.0,0.0,0.0,0.0,0.0,0.0,0.0,0.0,0.0,-0.00781250279397,0.0820312798023,0.0507812686265,0.0,0.0,0.0,0.0,0.0,0.0,0.0,0.0,0.0
1583763060238671137,846,1583763056252393013,imu,-0.0217285305262,-0.00427246419713,0.00170898553915,0.999756574631,0.0,0.0,0.0,0.0,0.0,0.0,0.0,0.0,0.0,0.0,0.0,0.0,0.0,0.0,0.0,0.0,0.0,0.0,0.0,0.0,0.0,0.0195312574506,-0.00781250279397,-0.0351562611759,0.0,0.0,0.0,0.0,0.0,0.0,0.0,0.0,0.0
1583763060238712273,847,1583763056313393013,imu,-0.0209350734949,-0.00439453450963,0.00177002081182,0.999756574631,0.0,0.0,0.0,0.0,0.0,0.0,0.0,0.0,0.0,0.0,0.0,0.0,0.0,0.0,0.0,0.0,0.0,0.0,0.0,0.0,0.0,0.0195312574506,-0.00781250279397,-0.0351562611759,0.0,0.0,0.0,0.0,0.0,0.0,0.0,0.0,0.0
1583763060238731971,848,1583763056353393013,imu,-0.0209350734949,-0.00439453450963,0.00177002081182,0.999756574631,0.0,0.0,0.0,0.0,0.0,0.0,0.0,0.0,0.0,0.0,0.0,0.0,0.0,0.0,0.0,0.0,0.0,0.0,0.0,0.0,0.0,-0.0156250055879,0.0585937723517,0.00390625139698,0.0,0.0,0.0,0.0,0.0,0.0,0.0,0.0,0.0
1583763060238782391,849,1583763056413393013,imu,-0.0198974758387,-0.00439453450963,0.00177002081182,0.999817609787,0.0,0.0,0.0,0.0,0.0,0.0,0.0,0.0,0.0,0.0,0.0,0.0,0.0,0.0,0.0,0.0,0.0,0.0,0.0,0.0,0.0,-0.0156250055879,0.0585937723517,0.00390625139698,0.0,0.0,0.0,0.0,0.0,0.0,0.0,0.0,0.0
1583763060238804196,850,1583763056453393013,imu,-0.0198974758387,-0.00439453450963,0.00177002081182,0.999817609787,0.0,0.0,0.0,0.0,0.0,0.0,0.0,0.0,0.0,0.0,0.0,0.0,0.0,0.0,0.0,0.0,0.0,0.0,0.0,0.0,0.0,0.0195312574506,-0.0312500111759,-0.0664062723517,0.0,0.0,0.0,0.0,0.0,0.0,0.0,0.0,0.0
1583763060239028621,851,1583763056513393013,imu,-0.0192260872573,-0.00476074544713,0.00183105596807,0.999817609787,0.0,0.0,0.0,0.0,0.0,0.0,0.0,0.0,0.0,0.0,0.0,0.0,0.0,0.0,0.0,0.0,0.0,0.0,0.0,0.0,0.0,0.0195312574506,-0.0312500111759,-0.0664062723517,0.0,0.0,0.0,0.0,0.0,0.0,0.0,0.0,0.0
1583763060239302859,852,1583763056553393013,imu,-0.0192260872573,-0.00476074544713,0.00183105596807,0.999817609787,0.0,0.0,0.0,0.0,0.0,0.0,0.0,0.0,0.0,0.0,0.0,0.0,0.0,0.0,0.0,0.0,0.0,0.0,0.0,0.0,0.0,-0.0156250055879,0.0820312798023,-0.0195312574506,0.0,0.0,0.0,0.0,0.0,0.0,0.0,0.0,0.0
1583763060239579487,853,1583763056613393013,imu,-0.0185547005385,-0.00488281622529,0.00195312639698,0.999817609787,0.0,0.0,0.0,0.0,0.0,0.0,0.0,0.0,0.0,0.0,0.0,0.0,0.0,0.0,0.0,0.0,0.0,0.0,0.0,0.0,0.0,-0.0156250055879,0.0820312798023,-0.0195312574506,0.0,0.0,0.0,0.0,0.0,0.0,0.0,0.0,0.0
1583763060239605349,854,1583763056653393013,imu,-0.0185547005385,-0.00488281622529,0.00195312639698,0.999817609787,0.0,0.0,0.0,0.0,0.0,0.0,0.0,0.0,0.0,0.0,0.0,0.0,0.0,0.0,0.0,0.0,0.0,0.0,0.0,0.0,0.0,0.0195312574506,-0.00781250279397,0.0195312574506,0.0,0.0,0.0,0.0,0.0,0.0,0.0,0.0,0.0
1583763060239767969,855,1583763056713393013,imu,-0.0178222786635,-0.00531006231904,0.00183105596807,0.999817609787,0.0,0.0,0.0,0.0,0.0,0.0,0.0,0.0,0.0,0.0,0.0,0.0,0.0,0.0,0.0,0.0,0.0,0.0,0.0,0.0,0.0,0.0195312574506,-0.00781250279397,0.0195312574506,0.0,0.0,0.0,0.0,0.0,0.0,0.0,0.0,0.0
1583763060239787104,856,1583763056755393013,imu,-0.0178222786635,-0.00531006231904,0.00183105596807,0.999817609787,0.0,0.0,0.0,0.0,0.0,0.0,0.0,0.0,0.0,0.0,0.0,0.0,0.0,0.0,0.0,0.0,0.0,0.0,0.0,0.0,0.0,-0.0312500111759,0.0195312574506,-0.0585937723517,0.0,0.0,0.0,0.0,0.0,0.0,0.0,0.0,0.0
1583763060239971829,857,1583763056820198904,imu,-0.0173950325698,-0.00531006231904,0.0016479503829,0.999817609787,0.0,0.0,0.0,0.0,0.0,0.0,0.0,0.0,0.0,0.0,0.0,0.0,0.0,0.0,0.0,0.0,0.0,0.0,0.0,0.0,0.0,-0.0312500111759,0.0195312574506,-0.0585937723517,0.0,0.0,0.0,0.0,0.0,0.0,0.0,0.0,0.0
1583763060240138560,858,1583763056860198904,imu,-0.0173950325698,-0.00531006231904,0.0016479503829,0.999817609787,0.0,0.0,0.0,0.0,0.0,0.0,0.0,0.0,0.0,0.0,0.0,0.0,0.0,0.0,0.0,0.0,0.0,0.0,0.0,0.0,0.0,0.0507812686265,-0.246093839407,0.0117187537253,0.0,0.0,0.0,0.0,0.0,0.0,0.0,0.0,0.0
1583763060244489182,859,1583763056920198904,imu,-0.017211927101,-0.00573730887845,0.00152587995399,0.999817609787,0.0,0.0,0.0,0.0,0.0,0.0,0.0,0.0,0.0,0.0,0.0,0.0,0.0,0.0,0.0,0.0,0.0,0.0,0.0,0.0,0.0,0.0507812686265,-0.246093839407,0.0117187537253,0.0,0.0,0.0,0.0,0.0,0.0,0.0,0.0,0.0
1583763060244580108,860,1583763056960198904,imu,-0.017211927101,-0.00573730887845,0.00152587995399,0.999817609787,0.0,0.0,0.0,0.0,0.0,0.0,0.0,0.0,0.0,0.0,0.0,0.0,0.0,0.0,0.0,0.0,0.0,0.0,0.0,0.0,0.0,-0.0390625149012,-0.0312500111759,-0.0351562611759,0.0,0.0,0.0,0.0,0.0,0.0,0.0,0.0,0.0
1583763060244742208,861,1583763057020198904,imu,-0.0173950325698,-0.00598144950345,0.00152587995399,0.999817609787,0.0,0.0,0.0,0.0,0.0,0.0,0.0,0.0,0.0,0.0,0.0,0.0,0.0,0.0,0.0,0.0,0.0,0.0,0.0,0.0,0.0,-0.0390625149012,-0.0312500111759,-0.0351562611759,0.0,0.0,0.0,0.0,0.0,0.0,0.0,0.0,0.0
1583763060244914981,862,1583763057060198904,imu,-0.0173950325698,-0.00598144950345,0.00152587995399,0.999817609787,0.0,0.0,0.0,0.0,0.0,0.0,0.0,0.0,0.0,0.0,0.0,0.0,0.0,0.0,0.0,0.0,0.0,0.0,0.0,0.0,0.0,0.0273437593132,-0.0390625149012,0.00390625139698,0.0,0.0,0.0,0.0,0.0,0.0,0.0,0.0,0.0
1583763060244989471,863,1583763057120198904,imu,-0.0178222786635,-0.00549316778779,0.00152587995399,0.999817609787,0.0,0.0,0.0,0.0,0.0,0.0,0.0,0.0,0.0,0.0,0.0,0.0,0.0,0.0,0.0,0.0,0.0,0.0,0.0,0.0,0.0,0.0273437593132,-0.0390625149012,0.00390625139698,0.0,0.0,0.0,0.0,0.0,0.0,0.0,0.0,0.0
1583763060245054660,864,1583763057160198904,imu,-0.0178222786635,-0.00549316778779,0.00152587995399,0.999817609787,0.0,0.0,0.0,0.0,0.0,0.0,0.0,0.0,0.0,0.0,0.0,0.0,0.0,0.0,0.0,0.0,0.0,0.0,0.0,0.0,0.0,0.0273437593132,-0.0585937723517,0.0429687649012,0.0,0.0,0.0,0.0,0.0,0.0,0.0,0.0,0.0
1583763060245073985,865,1583763057220198904,imu,-0.0180664192885,-0.00585937919095,0.00140380964149,0.999817609787,0.0,0.0,0.0,0.0,0.0,0.0,0.0,0.0,0.0,0.0,0.0,0.0,0.0,0.0,0.0,0.0,0.0,0.0,0.0,0.0,0.0,0.0273437593132,-0.0585937723517,0.0429687649012,0.0,0.0,0.0,0.0,0.0,0.0,0.0,0.0,0.0
1583763060245087493,866,1583763057260198904,imu,-0.0180664192885,-0.00585937919095,0.00140380964149,0.999817609787,0.0,0.0,0.0,0.0,0.0,0.0,0.0,0.0,0.0,0.0,0.0,0.0,0.0,0.0,0.0,0.0,0.0,0.0,0.0,0.0,0.0,-0.0195312574506,-0.0351562611759,-0.0742187798023,0.0,0.0,0.0,0.0,0.0,0.0,0.0,0.0,0.0
1583763060245111234,867,1583763057320198904,imu,-0.018676770851,-0.0059204143472,0.00134277436882,0.999817609787,0.0,0.0,0.0,0.0,0.0,0.0,0.0,0.0,0.0,0.0,0.0,0.0,0.0,0.0,0.0,0.0,0.0,0.0,0.0,0.0,0.0,-0.0195312574506,-0.0351562611759,-0.0742187798023,0.0,0.0,0.0,0.0,0.0,0.0,0.0,0.0,0.0
1583763060245119464,868,1583763057360198904,imu,-0.018676770851,-0.0059204143472,0.00134277436882,0.999817609787,0.0,0.0,0.0,0.0,0.0,0.0,0.0,0.0,0.0,0.0,0.0,0.0,0.0,0.0,0.0,0.0,0.0,0.0,0.0,0.0,0.0,-0.0195312574506,-0.0273437593132,0.00390625139698,0.0,0.0,0.0,0.0,0.0,0.0,0.0,0.0,0.0
1583763060245137847,869,1583763057419198904,imu,-0.0191040169448,-0.00598144950345,0.00128173921257,0.999817609787,0.0,0.0,0.0,0.0,0.0,0.0,0.0,0.0,0.0,0.0,0.0,0.0,0.0,0.0,0.0,0.0,0.0,0.0,0.0,0.0,0.0,-0.0195312574506,-0.0273437593132,0.00390625139698,0.0,0.0,0.0,0.0,0.0,0.0,0.0,0.0,0.0
1583763060245155253,870,1583763057459198904,imu,-0.0191040169448,-0.00598144950345,0.00128173921257,0.999817609787,0.0,0.0,0.0,0.0,0.0,0.0,0.0,0.0,0.0,0.0,0.0,0.0,0.0,0.0,0.0,0.0,0.0,0.0,0.0,0.0,0.0,0.0195312574506,0.0390625149012,0.00390625139698,0.0,0.0,0.0,0.0,0.0,0.0,0.0,0.0,0.0
1583763060245167080,871,1583763057520198904,imu,-0.0197143703699,-0.00573730887845,0.00134277436882,0.999817609787,0.0,0.0,0.0,0.0,0.0,0.0,0.0,0.0,0.0,0.0,0.0,0.0,0.0,0.0,0.0,0.0,0.0,0.0,0.0,0.0,0.0,0.0195312574506,0.0390625149012,0.00390625139698,0.0,0.0,0.0,0.0,0.0,0.0,0.0,0.0,0.0
1583763060245175627,872,1583763057559198904,imu,-0.0197143703699,-0.00573730887845,0.00134277436882,0.999817609787,0.0,0.0,0.0,0.0,0.0,0.0,0.0,0.0,0.0,0.0,0.0,0.0,0.0,0.0,0.0,0.0,0.0,0.0,0.0,0.0,0.0,-0.0546875186265,-0.0195312574506,0.00390625139698,0.0,0.0,0.0,0.0,0.0,0.0,0.0,0.0,0.0
1583763060245187953,873,1583763057619198904,imu,-0.0203247219324,-0.00531006231904,0.00152587995399,0.999756574631,0.0,0.0,0.0,0.0,0.0,0.0,0.0,0.0,0.0,0.0,0.0,0.0,0.0,0.0,0.0,0.0,0.0,0.0,0.0,0.0,0.0,-0.0546875186265,-0.0195312574506,0.00390625139698,0.0,0.0,0.0,0.0,0.0,0.0,0.0,0.0,0.0
1583763060245310301,874,1583763057659198904,imu,-0.0203247219324,-0.00531006231904,0.00152587995399,0.999756574631,0.0,0.0,0.0,0.0,0.0,0.0,0.0,0.0,0.0,0.0,0.0,0.0,0.0,0.0,0.0,0.0,0.0,0.0,0.0,0.0,0.0,-0.0390625149012,0.0234375074506,0.00390625139698,0.0,0.0,0.0,0.0,0.0,0.0,0.0,0.0,0.0
1583763060246100544,875,1583763057719198904,imu,-0.0206298977137,-0.00531006231904,0.00152587995399,0.999756574631,0.0,0.0,0.0,0.0,0.0,0.0,0.0,0.0,0.0,0.0,0.0,0.0,0.0,0.0,0.0,0.0,0.0,0.0,0.0,0.0,0.0,-0.0390625149012,0.0234375074506,0.00390625139698,0.0,0.0,0.0,0.0,0.0,0.0,0.0,0.0,0.0
1583763060246157559,876,1583763057759198904,imu,-0.0206298977137,-0.00531006231904,0.00152587995399,0.999756574631,0.0,0.0,0.0,0.0,0.0,0.0,0.0,0.0,0.0,0.0,0.0,0.0,0.0,0.0,0.0,0.0,0.0,0.0,0.0,0.0,0.0,-0.00390625139698,-0.0195312574506,0.00390625139698,0.0,0.0,0.0,0.0,0.0,0.0,0.0,0.0,0.0
1583763060246204653,877,1583763057820198904,imu,-0.0211181789637,-0.00482178060338,0.00152587995399,0.999756574631,0.0,0.0,0.0,0.0,0.0,0.0,0.0,0.0,0.0,0.0,0.0,0.0,0.0,0.0,0.0,0.0,0.0,0.0,0.0,0.0,0.0,-0.00390625139698,-0.0195312574506,0.00390625139698,0.0,0.0,0.0,0.0,0.0,0.0,0.0,0.0,0.0
1583763060246577939,878,1583763057859198904,imu,-0.0211181789637,-0.00482178060338,0.00152587995399,0.999756574631,0.0,0.0,0.0,0.0,0.0,0.0,0.0,0.0,0.0,0.0,0.0,0.0,0.0,0.0,0.0,0.0,0.0,0.0,0.0,0.0,0.0,0.0195312574506,0.0234375074506,0.0429687649012,0.0,0.0,0.0,0.0,0.0,0.0,0.0,0.0,0.0
1583763060246600816,879,1583763057919198904,imu,-0.0215454250574,-0.00512695685029,0.00152587995399,0.999756574631,0.0,0.0,0.0,0.0,0.0,0.0,0.0,0.0,0.0,0.0,0.0,0.0,0.0,0.0,0.0,0.0,0.0,0.0,0.0,0.0,0.0,0.0195312574506,0.0234375074506,0.0429687649012,0.0,0.0,0.0,0.0,0.0,0.0,0.0,0.0,0.0
1583763060246617469,880,1583763057959198904,imu,-0.0215454250574,-0.00512695685029,0.00152587995399,0.999756574631,0.0,0.0,0.0,0.0,0.0,0.0,0.0,0.0,0.0,0.0,0.0,0.0,0.0,0.0,0.0,0.0,0.0,0.0,0.0,0.0,0.0,0.0117187537253,0.0234375074506,0.00390625139698,0.0,0.0,0.0,0.0,0.0,0.0,0.0,0.0,0.0
1583763060246790911,881,1583763058021198904,imu,-0.0216674953699,-0.00506592169404,0.0016479503829,0.999756574631,0.0,0.0,0.0,0.0,0.0,0.0,0.0,0.0,0.0,0.0,0.0,0.0,0.0,0.0,0.0,0.0,0.0,0.0,0.0,0.0,0.0,0.0117187537253,0.0234375074506,0.00390625139698,0.0,0.0,0.0,0.0,0.0,0.0,0.0,0.0,0.0
1583763060247579566,882,1583763058060198904,imu,-0.0216674953699,-0.00506592169404,0.0016479503829,0.999756574631,0.0,0.0,0.0,0.0,0.0,0.0,0.0,0.0,0.0,0.0,0.0,0.0,0.0,0.0,0.0,0.0,0.0,0.0,0.0,0.0,0.0,0.0117187537253,-0.0195312574506,0.00390625139698,0.0,0.0,0.0,0.0,0.0,0.0,0.0,0.0,0.0
1583763060247722889,883,1583763058120198904,imu,-0.0220947414637,-0.00506592169404,0.00177002081182,0.999756574631,0.0,0.0,0.0,0.0,0.0,0.0,0.0,0.0,0.0,0.0,0.0,0.0,0.0,0.0,0.0,0.0,0.0,0.0,0.0,0.0,0.0,0.0117187537253,-0.0195312574506,0.00390625139698,0.0,0.0,0.0,0.0,0.0,0.0,0.0,0.0,0.0
1583763060247781686,884,1583763058160198904,imu,-0.0220947414637,-0.00506592169404,0.00177002081182,0.999756574631,0.0,0.0,0.0,0.0,0.0,0.0,0.0,0.0,0.0,0.0,0.0,0.0,0.0,0.0,0.0,0.0,0.0,0.0,0.0,0.0,0.0,0.0507812686265,0.0234375074506,0.0781250298023,0.0,0.0,0.0,0.0,0.0,0.0,0.0,0.0,0.0
1583763060247795000,885,1583763058220198904,imu,-0.0220337063074,-0.00524902716279,0.00158691522665,0.999756574631,0.0,0.0,0.0,0.0,0.0,0.0,0.0,0.0,0.0,0.0,0.0,0.0,0.0,0.0,0.0,0.0,0.0,0.0,0.0,0.0,0.0,0.0507812686265,0.0234375074506,0.0781250298023,0.0,0.0,0.0,0.0,0.0,0.0,0.0,0.0,0.0
1583763060247808468,886,1583763058259198904,imu,-0.0220337063074,-0.00524902716279,0.00158691522665,0.999756574631,0.0,0.0,0.0,0.0,0.0,0.0,0.0,0.0,0.0,0.0,0.0,0.0,0.0,0.0,0.0,0.0,0.0,0.0,0.0,0.0,0.0,-0.0312500111759,-0.0507812686265,0.0625000223517,0.0,0.0,0.0,0.0,0.0,0.0,0.0,0.0,0.0
1583763060247821684,887,1583763058321198904,imu,-0.0223388839513,-0.00494385138154,0.00152587995399,0.999756574631,0.0,0.0,0.0,0.0,0.0,0.0,0.0,0.0,0.0,0.0,0.0,0.0,0.0,0.0,0.0,0.0,0.0,0.0,0.0,0.0,0.0,-0.0312500111759,-0.0507812686265,0.0625000223517,0.0,0.0,0.0,0.0,0.0,0.0,0.0,0.0,0.0
1583763060247828685,888,1583763058359198904,imu,-0.0223388839513,-0.00494385138154,0.00152587995399,0.999756574631,0.0,0.0,0.0,0.0,0.0,0.0,0.0,0.0,0.0,0.0,0.0,0.0,0.0,0.0,0.0,0.0,0.0,0.0,0.0,0.0,0.0,-0.0312500111759,0.101562537253,-0.0742187798023,0.0,0.0,0.0,0.0,0.0,0.0,0.0,0.0,0.0
1583763060247849993,889,1583763058420198904,imu,-0.0220337063074,-0.00494385138154,0.00122070405632,0.999756574631,0.0,0.0,0.0,0.0,0.0,0.0,0.0,0.0,0.0,0.0,0.0,0.0,0.0,0.0,0.0,0.0,0.0,0.0,0.0,0.0,0.0,-0.0312500111759,0.101562537253,-0.0742187798023,0.0,0.0,0.0,0.0,0.0,0.0,0.0,0.0,0.0
1583763060247858196,890,1583763058460198904,imu,-0.0220337063074,-0.00494385138154,0.00122070405632,0.999756574631,0.0,0.0,0.0,0.0,0.0,0.0,0.0,0.0,0.0,0.0,0.0,0.0,0.0,0.0,0.0,0.0,0.0,0.0,0.0,0.0,0.0,0.00390625139698,0.0,-0.0664062723517,0.0,0.0,0.0,0.0,0.0,0.0,0.0,0.0,0.0
1583763060247911346,891,1583763058519198904,imu,-0.0220947414637,-0.00482178060338,0.00103759835474,0.999756574631,0.0,0.0,0.0,0.0,0.0,0.0,0.0,0.0,0.0,0.0,0.0,0.0,0.0,0.0,0.0,0.0,0.0,0.0,0.0,0.0,0.0,0.00390625139698,0.0,-0.0664062723517,0.0,0.0,0.0,0.0,0.0,0.0,0.0,0.0,0.0
1583763060247956795,892,1583763058559198904,imu,-0.0220947414637,-0.00482178060338,0.00103759835474,0.999756574631,0.0,0.0,0.0,0.0,0.0,0.0,0.0,0.0,0.0,0.0,0.0,0.0,0.0,0.0,0.0,0.0,0.0,0.0,0.0,0.0,0.0,-0.0625000223517,0.0390625149012,-0.148437559605,0.0,0.0,0.0,0.0,0.0,0.0,0.0,0.0,0.0
1583763060248003659,893,1583763058620198904,imu,-0.0220337063074,-0.00482178060338,0.000976563198492,0.999756574631,0.0,0.0,0.0,0.0,0.0,0.0,0.0,0.0,0.0,0.0,0.0,0.0,0.0,0.0,0.0,0.0,0.0,0.0,0.0,0.0,0.0,-0.0625000223517,0.0390625149012,-0.148437559605,0.0,0.0,0.0,0.0,0.0,0.0,0.0,0.0,0.0
1583763060248389222,894,1583763058659198904,imu,-0.0220337063074,-0.00482178060338,0.000976563198492,0.999756574631,0.0,0.0,0.0,0.0,0.0,0.0,0.0,0.0,0.0,0.0,0.0,0.0,0.0,0.0,0.0,0.0,0.0,0.0,0.0,0.0,0.0,-0.00781250279397,0.0468750149012,0.0273437593132,0.0,0.0,0.0,0.0,0.0,0.0,0.0,0.0,0.0
1583763060248410307,895,1583763058720198904,imu,-0.0217285305262,-0.00427246419713,0.000915527984034,0.999756574631,0.0,0.0,0.0,0.0,0.0,0.0,0.0,0.0,0.0,0.0,0.0,0.0,0.0,0.0,0.0,0.0,0.0,0.0,0.0,0.0,0.0,-0.00781250279397,0.0468750149012,0.0273437593132,0.0,0.0,0.0,0.0,0.0,0.0,0.0,0.0,0.0
1583763060248428840,896,1583763058759198904,imu,-0.0217285305262,-0.00427246419713,0.000915527984034,0.999756574631,0.0,0.0,0.0,0.0,0.0,0.0,0.0,0.0,0.0,0.0,0.0,0.0,0.0,0.0,0.0,0.0,0.0,0.0,0.0,0.0,0.0,0.0351562611759,-0.0351562611759,0.0585937723517,0.0,0.0,0.0,0.0,0.0,0.0,0.0,0.0,0.0
1583763060248448612,897,1583763058819198904,imu,-0.0218506008387,-0.00372314709239,0.000793457613327,0.999756574631,0.0,0.0,0.0,0.0,0.0,0.0,0.0,0.0,0.0,0.0,0.0,0.0,0.0,0.0,0.0,0.0,0.0,0.0,0.0,0.0,0.0,0.0351562611759,-0.0351562611759,0.0585937723517,0.0,0.0,0.0,0.0,0.0,0.0,0.0,0.0,0.0
1583763060248469136,898,1583763058859198904,imu,-0.0218506008387,-0.00372314709239,0.000793457613327,0.999756574631,0.0,0.0,0.0,0.0,0.0,0.0,0.0,0.0,0.0,0.0,0.0,0.0,0.0,0.0,0.0,0.0,0.0,0.0,0.0,0.0,0.0,0.0507812686265,-0.00781250279397,0.0117187537253,0.0,0.0,0.0,0.0,0.0,0.0,0.0,0.0,0.0
1583763060248585306,899,1583763058920198904,imu,-0.0219116359949,-0.00317383045331,0.000854492769577,0.999756574631,0.0,0.0,0.0,0.0,0.0,0.0,0.0,0.0,0.0,0.0,0.0,0.0,0.0,0.0,0.0,0.0,0.0,0.0,0.0,0.0,0.0,0.0507812686265,-0.00781250279397,0.0117187537253,0.0,0.0,0.0,0.0,0.0,0.0,0.0,0.0,0.0
1583763060248689639,900,1583763058960198904,imu,-0.0219116359949,-0.00317383045331,0.000854492769577,0.999756574631,0.0,0.0,0.0,0.0,0.0,0.0,0.0,0.0,0.0,0.0,0.0,0.0,0.0,0.0,0.0,0.0,0.0,0.0,0.0,0.0,0.0,0.0156250055879,-0.00781250279397,0.0117187537253,0.0,0.0,0.0,0.0,0.0,0.0,0.0,0.0,0.0
1583763060248710703,901,1583763059020198904,imu,-0.0218506008387,-0.00378418248147,0.000793457613327,0.999756574631,0.0,0.0,0.0,0.0,0.0,0.0,0.0,0.0,0.0,0.0,0.0,0.0,0.0,0.0,0.0,0.0,0.0,0.0,0.0,0.0,0.0,0.0156250055879,-0.00781250279397,0.0117187537253,0.0,0.0,0.0,0.0,0.0,0.0,0.0,0.0,0.0
1583763060248724321,902,1583763059059198904,imu,-0.0218506008387,-0.00378418248147,0.000793457613327,0.999756574631,0.0,0.0,0.0,0.0,0.0,0.0,0.0,0.0,0.0,0.0,0.0,0.0,0.0,0.0,0.0,0.0,0.0,0.0,0.0,0.0,0.0,-0.00781250279397,-0.0429687649012,-0.0664062723517,0.0,0.0,0.0,0.0,0.0,0.0,0.0,0.0,0.0
1583763060248731860,903,1583763059119198904,imu,-0.0222168136388,-0.00292968959548,0.00103759835474,0.999756574631,0.0,0.0,0.0,0.0,0.0,0.0,0.0,0.0,0.0,0.0,0.0,0.0,0.0,0.0,0.0,0.0,0.0,0.0,0.0,0.0,0.0,-0.00781250279397,-0.0429687649012,-0.0664062723517,0.0,0.0,0.0,0.0,0.0,0.0,0.0,0.0,0.0
1583763060248918232,904,1583763059159198904,imu,-0.0222168136388,-0.00292968959548,0.00103759835474,0.999756574631,0.0,0.0,0.0,0.0,0.0,0.0,0.0,0.0,0.0,0.0,0.0,0.0,0.0,0.0,0.0,0.0,0.0,0.0,0.0,0.0,0.0,0.00781250279397,-0.253906339407,-0.0351562611759,0.0,0.0,0.0,0.0,0.0,0.0,0.0,0.0,0.0
1583763060249005711,905,1583763059220198904,imu,-0.0223999191076,-0.00280761928298,0.000793457613327,0.999756574631,0.0,0.0,0.0,0.0,0.0,0.0,0.0,0.0,0.0,0.0,0.0,0.0,0.0,0.0,0.0,0.0,0.0,0.0,0.0,0.0,0.0,0.00781250279397,-0.253906339407,-0.0351562611759,0.0,0.0,0.0,0.0,0.0,0.0,0.0,0.0,0.0
1583763060249028070,906,1583763059261198904,imu,-0.0223999191076,-0.00280761928298,0.000793457613327,0.999756574631,0.0,0.0,0.0,0.0,0.0,0.0,0.0,0.0,0.0,0.0,0.0,0.0,0.0,0.0,0.0,0.0,0.0,0.0,0.0,0.0,0.0,-0.140625044703,0.0390625149012,-0.105468787253,0.0,0.0,0.0,0.0,0.0,0.0,0.0,0.0,0.0
1583763060249051349,907,1583763059320198904,imu,-0.0227661300451,-0.00286865443923,0.000610352028161,0.999756574631,0.0,0.0,0.0,0.0,0.0,0.0,0.0,0.0,0.0,0.0,0.0,0.0,0.0,0.0,0.0,0.0,0.0,0.0,0.0,0.0,0.0,-0.140625044703,0.0390625149012,-0.105468787253,0.0,0.0,0.0,0.0,0.0,0.0,0.0,0.0,0.0
1583763060251498828,908,1583763059364934999,imu,-0.0227661300451,-0.00286865443923,0.000610352028161,0.999756574631,0.0,0.0,0.0,0.0,0.0,0.0,0.0,0.0,0.0,0.0,0.0,0.0,0.0,0.0,0.0,0.0,0.0,0.0,0.0,0.0,0.0,-0.0546875186265,0.0390625149012,0.0351562611759,0.0,0.0,0.0,0.0,0.0,0.0,0.0,0.0,0.0
1583763060251508062,909,1583763059424934999,imu,-0.0230713058263,-0.00256347842515,0.000549316813704,0.999756574631,0.0,0.0,0.0,0.0,0.0,0.0,0.0,0.0,0.0,0.0,0.0,0.0,0.0,0.0,0.0,0.0,0.0,0.0,0.0,0.0,0.0,-0.0546875186265,0.0390625149012,0.0351562611759,0.0,0.0,0.0,0.0,0.0,0.0,0.0,0.0,0.0
1583763060251526005,910,1583763059464934999,imu,-0.0230713058263,-0.00256347842515,0.000549316813704,0.999756574631,0.0,0.0,0.0,0.0,0.0,0.0,0.0,0.0,0.0,0.0,0.0,0.0,0.0,0.0,0.0,0.0,0.0,0.0,0.0,0.0,0.0,0.0390625149012,-0.113281287253,-0.00390625139698,0.0,0.0,0.0,0.0,0.0,0.0,0.0,0.0,0.0
1583763060251535957,911,1583763059524934999,imu,-0.0236206222326,-0.00225830241106,0.000549316813704,0.999695539474,0.0,0.0,0.0,0.0,0.0,0.0,0.0,0.0,0.0,0.0,0.0,0.0,0.0,0.0,0.0,0.0,0.0,0.0,0.0,0.0,0.0,0.0390625149012,-0.113281287253,-0.00390625139698,0.0,0.0,0.0,0.0,0.0,0.0,0.0,0.0,0.0
1583763060251543266,912,1583763059565934999,imu,-0.0236206222326,-0.00225830241106,0.000549316813704,0.999695539474,0.0,0.0,0.0,0.0,0.0,0.0,0.0,0.0,0.0,0.0,0.0,0.0,0.0,0.0,0.0,0.0,0.0,0.0,0.0,0.0,0.0,0.0,-0.00390625139698,0.0351562611759,0.0,0.0,0.0,0.0,0.0,0.0,0.0,0.0,0.0
1583763060251700319,913,1583763059624934999,imu,-0.0242309737951,-0.00244140811265,0.000427246384788,0.999695539474,0.0,0.0,0.0,0.0,0.0,0.0,0.0,0.0,0.0,0.0,0.0,0.0,0.0,0.0,0.0,0.0,0.0,0.0,0.0,0.0,0.0,0.0,-0.00390625139698,0.0351562611759,0.0,0.0,0.0,0.0,0.0,0.0,0.0,0.0,0.0
1583763060251731816,914,1583763059664934999,imu,-0.0242309737951,-0.00244140811265,0.000427246384788,0.999695539474,0.0,0.0,0.0,0.0,0.0,0.0,0.0,0.0,0.0,0.0,0.0,0.0,0.0,0.0,0.0,0.0,0.0,0.0,0.0,0.0,0.0,-0.0468750149012,-0.0742187798023,0.00390625139698,0.0,0.0,0.0,0.0,0.0,0.0,0.0,0.0,0.0
1583763060251739744,915,1583763059724934999,imu,-0.024780292064,-0.00238037272356,0.000366211199434,0.999695539474,0.0,0.0,0.0,0.0,0.0,0.0,0.0,0.0,0.0,0.0,0.0,0.0,0.0,0.0,0.0,0.0,0.0,0.0,0.0,0.0,0.0,-0.0468750149012,-0.0742187798023,0.00390625139698,0.0,0.0,0.0,0.0,0.0,0.0,0.0,0.0,0.0
1583763060251783286,916,1583763059763934999,imu,-0.024780292064,-0.00238037272356,0.000366211199434,0.999695539474,0.0,0.0,0.0,0.0,0.0,0.0,0.0,0.0,0.0,0.0,0.0,0.0,0.0,0.0,0.0,0.0,0.0,0.0,0.0,0.0,0.0,0.0,-0.0117187537253,0.0117187537253,0.0,0.0,0.0,0.0,0.0,0.0,0.0,0.0,0.0
1583763060251790749,917,1583763059824934999,imu,-0.0258178897202,-0.00207519670948,0.000488281599246,0.999695539474,0.0,0.0,0.0,0.0,0.0,0.0,0.0,0.0,0.0,0.0,0.0,0.0,0.0,0.0,0.0,0.0,0.0,0.0,0.0,0.0,0.0,0.0,-0.0117187537253,0.0117187537253,0.0,0.0,0.0,0.0,0.0,0.0,0.0,0.0,0.0
1583763060251806797,918,1583763059864934999,imu,-0.0258178897202,-0.00207519670948,0.000488281599246,0.999695539474,0.0,0.0,0.0,0.0,0.0,0.0,0.0,0.0,0.0,0.0,0.0,0.0,0.0,0.0,0.0,0.0,0.0,0.0,0.0,0.0,0.0,0.0468750149012,0.0507812686265,0.0117187537253,0.0,0.0,0.0,0.0,0.0,0.0,0.0,0.0,0.0
1583763060252525413,919,1583763059923934999,imu,-0.026489276439,-0.00201416155323,0.000366211199434,0.999634504318,0.0,0.0,0.0,0.0,0.0,0.0,0.0,0.0,0.0,0.0,0.0,0.0,0.0,0.0,0.0,0.0,0.0,0.0,0.0,0.0,0.0,0.0468750149012,0.0507812686265,0.0117187537253,0.0,0.0,0.0,0.0,0.0,0.0,0.0,0.0,0.0
1583763060252534216,920,1583763059963934999,imu,-0.026489276439,-0.00201416155323,0.000366211199434,0.999634504318,0.0,0.0,0.0,0.0,0.0,0.0,0.0,0.0,0.0,0.0,0.0,0.0,0.0,0.0,0.0,0.0,0.0,0.0,0.0,0.0,0.0,0.0,0.0507812686265,0.0820312798023,0.0,0.0,0.0,0.0,0.0,0.0,0.0,0.0,0.0
1583763060252597662,921,1583763060023934999,imu,-0.0269165225327,-0.00195312639698,0.000305176014081,0.999634504318,0.0,0.0,0.0,0.0,0.0,0.0,0.0,0.0,0.0,0.0,0.0,0.0,0.0,0.0,0.0,0.0,0.0,0.0,0.0,0.0,0.0,0.0,0.0507812686265,0.0820312798023,0.0,0.0,0.0,0.0,0.0,0.0,0.0,0.0,0.0
1583763060252606503,922,1583763060063934999,imu,-0.0269165225327,-0.00195312639698,0.000305176014081,0.999634504318,0.0,0.0,0.0,0.0,0.0,0.0,0.0,0.0,0.0,0.0,0.0,0.0,0.0,0.0,0.0,0.0,0.0,0.0,0.0,0.0,0.0,0.0390625149012,-0.0273437593132,0.0664062723517,0.0,0.0,0.0,0.0,0.0,0.0,0.0,0.0,0.0
1583763060252615081,923,1583763060124934999,imu,-0.0276489462703,-0.00207519670948,6.10351999057e-05,0.999634504318,0.0,0.0,0.0,0.0,0.0,0.0,0.0,0.0,0.0,0.0,0.0,0.0,0.0,0.0,0.0,0.0,0.0,0.0,0.0,0.0,0.0,0.0390625149012,-0.0273437593132,0.0664062723517,0.0,0.0,0.0,0.0,0.0,0.0,0.0,0.0,0.0
1583763060252626713,924,1583763060163934999,imu,-0.0276489462703,-0.00207519670948,6.10351999057e-05,0.999634504318,0.0,0.0,0.0,0.0,0.0,0.0,0.0,0.0,0.0,0.0,0.0,0.0,0.0,0.0,0.0,0.0,0.0,0.0,0.0,0.0,0.0,-0.0859375298023,0.0507812686265,-0.0585937723517,0.0,0.0,0.0,0.0,0.0,0.0,0.0,0.0,0.0
1583763060287351227,925,1583763060224934999,imu,-0.0278930868953,-0.00231933756731,-6.10351999057e-05,0.999634504318,0.0,0.0,0.0,0.0,0.0,0.0,0.0,0.0,0.0,0.0,0.0,0.0,0.0,0.0,0.0,0.0,0.0,0.0,0.0,0.0,0.0,-0.0859375298023,0.0507812686265,-0.0585937723517,0.0,0.0,0.0,0.0,0.0,0.0,0.0,0.0,0.0
1583763060309796322,926,1583763060264934999,imu,-0.0278930868953,-0.00231933756731,-6.10351999057e-05,0.999634504318,0.0,0.0,0.0,0.0,0.0,0.0,0.0,0.0,0.0,0.0,0.0,0.0,0.0,0.0,0.0,0.0,0.0,0.0,0.0,0.0,0.0,0.0664062723517,-0.0898437798023,0.0273437593132,0.0,0.0,0.0,0.0,0.0,0.0,0.0,0.0,0.0
1583763060417632530,927,1583763060323934999,imu,-0.0281372275203,-0.00225830241106,-0.000366211199434,0.999573469162,0.0,0.0,0.0,0.0,0.0,0.0,0.0,0.0,0.0,0.0,0.0,0.0,0.0,0.0,0.0,0.0,0.0,0.0,0.0,0.0,0.0,0.0664062723517,-0.0898437798023,0.0273437593132,0.0,0.0,0.0,0.0,0.0,0.0,0.0,0.0,0.0
1583763060434268831,928,1583763060363934999,imu,-0.0281372275203,-0.00225830241106,-0.000366211199434,0.999573469162,0.0,0.0,0.0,0.0,0.0,0.0,0.0,0.0,0.0,0.0,0.0,0.0,0.0,0.0,0.0,0.0,0.0,0.0,0.0,0.0,0.0,-0.0156250055879,0.117187544703,0.0585937723517,0.0,0.0,0.0,0.0,0.0,0.0,0.0,0.0,0.0
1583763060513252342,929,1583763060424934999,imu,-0.0281372275203,-0.00244140811265,-0.000732422398869,0.999573469162,0.0,0.0,0.0,0.0,0.0,0.0,0.0,0.0,0.0,0.0,0.0,0.0,0.0,0.0,0.0,0.0,0.0,0.0,0.0,0.0,0.0,-0.0156250055879,0.117187544703,0.0585937723517,0.0,0.0,0.0,0.0,0.0,0.0,0.0,0.0,0.0
1583763060533837789,930,1583763060464934999,imu,-0.0281372275203,-0.00244140811265,-0.000732422398869,0.999573469162,0.0,0.0,0.0,0.0,0.0,0.0,0.0,0.0,0.0,0.0,0.0,0.0,0.0,0.0,0.0,0.0,0.0,0.0,0.0,0.0,0.0,0.105468787253,-0.0429687649012,0.0117187537253,0.0,0.0,0.0,0.0,0.0,0.0,0.0,0.0,0.0
1583763060563878957,931,1583763060523934999,imu,-0.0279541220516,-0.0025024432689,-0.000488281599246,0.999634504318,0.0,0.0,0.0,0.0,0.0,0.0,0.0,0.0,0.0,0.0,0.0,0.0,0.0,0.0,0.0,0.0,0.0,0.0,0.0,0.0,0.0,0.105468787253,-0.0429687649012,0.0117187537253,0.0,0.0,0.0,0.0,0.0,0.0,0.0,0.0,0.0
1583763060612533227,932,1583763060563934999,imu,-0.0279541220516,-0.0025024432689,-0.000488281599246,0.999634504318,0.0,0.0,0.0,0.0,0.0,0.0,0.0,0.0,0.0,0.0,0.0,0.0,0.0,0.0,0.0,0.0,0.0,0.0,0.0,0.0,0.0,0.0156250055879,-0.00390625139698,-0.0273437593132,0.0,0.0,0.0,0.0,0.0,0.0,0.0,0.0,0.0
1583763060718452232,933,1583763060623934999,imu,-0.0276489462703,-0.00244140811265,-0.000610352028161,0.999634504318,0.0,0.0,0.0,0.0,0.0,0.0,0.0,0.0,0.0,0.0,0.0,0.0,0.0,0.0,0.0,0.0,0.0,0.0,0.0,0.0,0.0,0.0156250055879,-0.00390625139698,-0.0273437593132,0.0,0.0,0.0,0.0,0.0,0.0,0.0,0.0,0.0
1583763060734289277,934,1583763060663934999,imu,-0.0276489462703,-0.00244140811265,-0.000610352028161,0.999634504318,0.0,0.0,0.0,0.0,0.0,0.0,0.0,0.0,0.0,0.0,0.0,0.0,0.0,0.0,0.0,0.0,0.0,0.0,0.0,0.0,0.0,0.0234375074506,0.0351562611759,-0.0742187798023,0.0,0.0,0.0,0.0,0.0,0.0,0.0,0.0,0.0
1583763060811836714,935,1583763060724934999,imu,-0.027221698314,-0.00268554873765,-0.000732422398869,0.999634504318,0.0,0.0,0.0,0.0,0.0,0.0,0.0,0.0,0.0,0.0,0.0,0.0,0.0,0.0,0.0,0.0,0.0,0.0,0.0,0.0,0.0,0.0234375074506,0.0351562611759,-0.0742187798023,0.0,0.0,0.0,0.0,0.0,0.0,0.0,0.0,0.0
1583763060834056955,936,1583763060764934999,imu,-0.027221698314,-0.00268554873765,-0.000732422398869,0.999634504318,0.0,0.0,0.0,0.0,0.0,0.0,0.0,0.0,0.0,0.0,0.0,0.0,0.0,0.0,0.0,0.0,0.0,0.0,0.0,0.0,0.0,-0.0234375074506,-0.0117187537253,-0.0351562611759,0.0,0.0,0.0,0.0,0.0,0.0,0.0,0.0,0.0
1583763060908796167,937,1583763060823934999,imu,-0.026733417064,-0.00292968959548,-0.000915527984034,0.999634504318,0.0,0.0,0.0,0.0,0.0,0.0,0.0,0.0,0.0,0.0,0.0,0.0,0.0,0.0,0.0,0.0,0.0,0.0,0.0,0.0,0.0,-0.0234375074506,-0.0117187537253,-0.0351562611759,0.0,0.0,0.0,0.0,0.0,0.0,0.0,0.0,0.0
1583763060930873702,938,1583763060863934999,imu,-0.026733417064,-0.00292968959548,-0.000915527984034,0.999634504318,0.0,0.0,0.0,0.0,0.0,0.0,0.0,0.0,0.0,0.0,0.0,0.0,0.0,0.0,0.0,0.0,0.0,0.0,0.0,0.0,0.0,-0.0156250055879,0.0585937723517,-0.0273437593132,0.0,0.0,0.0,0.0,0.0,0.0,0.0,0.0,0.0
1583763060971752055,939,1583763060923934999,imu,-0.026000995189,-0.00305175990798,-0.00109863362741,0.999634504318,0.0,0.0,0.0,0.0,0.0,0.0,0.0,0.0,0.0,0.0,0.0,0.0,0.0,0.0,0.0,0.0,0.0,0.0,0.0,0.0,0.0,-0.0156250055879,0.0585937723517,-0.0273437593132,0.0,0.0,0.0,0.0,0.0,0.0,0.0,0.0,0.0
1583763061009937424,940,1583763060963934999,imu,-0.026000995189,-0.00305175990798,-0.00109863362741,0.999634504318,0.0,0.0,0.0,0.0,0.0,0.0,0.0,0.0,0.0,0.0,0.0,0.0,0.0,0.0,0.0,0.0,0.0,0.0,0.0,0.0,0.0,0.0156250055879,-0.0429687649012,0.0507812686265,0.0,0.0,0.0,0.0,0.0,0.0,0.0,0.0,0.0
1583763061109728027,941,1583763061024934999,imu,-0.025024432689,-0.00323486560956,-0.00109863362741,0.999695539474,0.0,0.0,0.0,0.0,0.0,0.0,0.0,0.0,0.0,0.0,0.0,0.0,0.0,0.0,0.0,0.0,0.0,0.0,0.0,0.0,0.0,0.0156250055879,-0.0429687649012,0.0507812686265,0.0,0.0,0.0,0.0,0.0,0.0,0.0,0.0,0.0
1583763061135705913,942,1583763061064934999,imu,-0.025024432689,-0.00323486560956,-0.00109863362741,0.999695539474,0.0,0.0,0.0,0.0,0.0,0.0,0.0,0.0,0.0,0.0,0.0,0.0,0.0,0.0,0.0,0.0,0.0,0.0,0.0,0.0,0.0,0.00781250279397,-0.0195312574506,-0.0351562611759,0.0,0.0,0.0,0.0,0.0,0.0,0.0,0.0,0.0
1583763061209255464,943,1583763061124934999,imu,-0.0242309737951,-0.00366211193614,-0.00122070405632,0.999695539474,0.0,0.0,0.0,0.0,0.0,0.0,0.0,0.0,0.0,0.0,0.0,0.0,0.0,0.0,0.0,0.0,0.0,0.0,0.0,0.0,0.0,0.00781250279397,-0.0195312574506,-0.0351562611759,0.0,0.0,0.0,0.0,0.0,0.0,0.0,0.0,0.0
1583763061240816557,944,1583763061164934999,imu,-0.0242309737951,-0.00366211193614,-0.00122070405632,0.999695539474,0.0,0.0,0.0,0.0,0.0,0.0,0.0,0.0,0.0,0.0,0.0,0.0,0.0,0.0,0.0,0.0,0.0,0.0,0.0,0.0,0.0,0.0429687649012,0.0390625149012,0.0195312574506,0.0,0.0,0.0,0.0,0.0,0.0,0.0,0.0,0.0
1583763061298807085,945,1583763061223934999,imu,-0.0233764816076,-0.00384521763772,-0.00158691522665,0.999695539474,0.0,0.0,0.0,0.0,0.0,0.0,0.0,0.0,0.0,0.0,0.0,0.0,0.0,0.0,0.0,0.0,0.0,0.0,0.0,0.0,0.0,0.0429687649012,0.0390625149012,0.0195312574506,0.0,0.0,0.0,0.0,0.0,0.0,0.0,0.0,0.0
1583763061316402696,946,1583763061263934999,imu,-0.0233764816076,-0.00384521763772,-0.00158691522665,0.999695539474,0.0,0.0,0.0,0.0,0.0,0.0,0.0,0.0,0.0,0.0,0.0,0.0,0.0,0.0,0.0,0.0,0.0,0.0,0.0,0.0,0.0,0.0,0.0156250055879,0.0585937723517,0.0,0.0,0.0,0.0,0.0,0.0,0.0,0.0,0.0
1583763061409219340,947,1583763061323934999,imu,-0.0225219894201,-0.00415039341897,-0.00170898553915,0.999756574631,0.0,0.0,0.0,0.0,0.0,0.0,0.0,0.0,0.0,0.0,0.0,0.0,0.0,0.0,0.0,0.0,0.0,0.0,0.0,0.0,0.0,0.0,0.0156250055879,0.0585937723517,0.0,0.0,0.0,0.0,0.0,0.0,0.0,0.0,0.0
1583763061418603496,948,1583763061363934999,imu,-0.0225219894201,-0.00415039341897,-0.00170898553915,0.999756574631,0.0,0.0,0.0,0.0,0.0,0.0,0.0,0.0,0.0,0.0,0.0,0.0,0.0,0.0,0.0,0.0,0.0,0.0,0.0,0.0,0.0,0.0664062723517,-0.0429687649012,0.00390625139698,0.0,0.0,0.0,0.0,0.0,0.0,0.0,0.0,0.0
1583763061509174857,949,1583763061424934999,imu,-0.0216064602137,-0.00469971029088,-0.00195312639698,0.999756574631,0.0,0.0,0.0,0.0,0.0,0.0,0.0,0.0,0.0,0.0,0.0,0.0,0.0,0.0,0.0,0.0,0.0,0.0,0.0,0.0,0.0,0.0664062723517,-0.0429687649012,0.00390625139698,0.0,0.0,0.0,0.0,0.0,0.0,0.0,0.0,0.0
1583763061529036879,950,1583763061464934999,imu,-0.0216064602137,-0.00469971029088,-0.00195312639698,0.999756574631,0.0,0.0,0.0,0.0,0.0,0.0,0.0,0.0,0.0,0.0,0.0,0.0,0.0,0.0,0.0,0.0,0.0,0.0,0.0,0.0,0.0,-0.0625000223517,0.0156250055879,-0.0351562611759,0.0,0.0,0.0,0.0,0.0,0.0,0.0,0.0,0.0
1583763061569271778,951,1583763061524934999,imu,-0.0208740383387,-0.00476074544713,-0.00213623209856,0.999756574631,0.0,0.0,0.0,0.0,0.0,0.0,0.0,0.0,0.0,0.0,0.0,0.0,0.0,0.0,0.0,0.0,0.0,0.0,0.0,0.0,0.0,-0.0625000223517,0.0156250055879,-0.0351562611759,0.0,0.0,0.0,0.0,0.0,0.0,0.0,0.0,0.0
1583763061615034639,952,1583763061563934999,imu,-0.0208740383387,-0.00476074544713,-0.00213623209856,0.999756574631,0.0,0.0,0.0,0.0,0.0,0.0,0.0,0.0,0.0,0.0,0.0,0.0,0.0,0.0,0.0,0.0,0.0,0.0,0.0,0.0,0.0,0.0585937723517,0.0,0.0507812686265,0.0,0.0,0.0,0.0,0.0,0.0,0.0,0.0,0.0
1583763061673687806,953,1583763061624934999,imu,-0.0200805813074,-0.00494385138154,-0.00213623209856,0.999756574631,0.0,0.0,0.0,0.0,0.0,0.0,0.0,0.0,0.0,0.0,0.0,0.0,0.0,0.0,0.0,0.0,0.0,0.0,0.0,0.0,0.0,0.0585937723517,0.0,0.0507812686265,0.0,0.0,0.0,0.0,0.0,0.0,0.0,0.0,0.0
1583763061709195774,954,1583763061664934999,imu,-0.0200805813074,-0.00494385138154,-0.00213623209856,0.999756574631,0.0,0.0,0.0,0.0,0.0,0.0,0.0,0.0,0.0,0.0,0.0,0.0,0.0,0.0,0.0,0.0,0.0,0.0,0.0,0.0,0.0,0.0585937723517,-0.0234375074506,0.00390625139698,0.0,0.0,0.0,0.0,0.0,0.0,0.0,0.0,0.0
1583763061780977770,955,1583763061723934999,imu,-0.0195923000574,-0.00518799200654,-0.00238037272356,0.999817609787,0.0,0.0,0.0,0.0,0.0,0.0,0.0,0.0,0.0,0.0,0.0,0.0,0.0,0.0,0.0,0.0,0.0,0.0,0.0,0.0,0.0,0.0585937723517,-0.0234375074506,0.00390625139698,0.0,0.0,0.0,0.0,0.0,0.0,0.0,0.0,0.0
1583763061809035991,956,1583763061763934999,imu,-0.0195923000574,-0.00518799200654,-0.00238037272356,0.999817609787,0.0,0.0,0.0,0.0,0.0,0.0,0.0,0.0,0.0,0.0,0.0,0.0,0.0,0.0,0.0,0.0,0.0,0.0,0.0,0.0,0.0,0.0117187537253,-0.105468787253,0.0429687649012,0.0,0.0,0.0,0.0,0.0,0.0,0.0,0.0,0.0
1583763061899016221,957,1583763061824934999,imu,-0.0187988411635,-0.00500488653779,-0.00378418248147,0.999817609787,0.0,0.0,0.0,0.0,0.0,0.0,0.0,0.0,0.0,0.0,0.0,0.0,0.0,0.0,0.0,0.0,0.0,0.0,0.0,0.0,0.0,0.0117187537253,-0.105468787253,0.0429687649012,0.0,0.0,0.0,0.0,0.0,0.0,0.0,0.0,0.0
1583763061917316942,958,1583763061866934999,imu,-0.0187988411635,-0.00500488653779,-0.00378418248147,0.999817609787,0.0,0.0,0.0,0.0,0.0,0.0,0.0,0.0,0.0,0.0,0.0,0.0,0.0,0.0,0.0,0.0,0.0,0.0,0.0,0.0,0.0,-0.0546875186265,-0.320312619209,0.00390625139698,0.0,0.0,0.0,0.0,0.0,0.0,0.0,0.0,0.0
1583763061961687586,959,1583763061927217063,imu,-0.019165052101,-0.00439453450963,-0.00537109747529,0.999817609787,0.0,0.0,0.0,0.0,0.0,0.0,0.0,0.0,0.0,0.0,0.0,0.0,0.0,0.0,0.0,0.0,0.0,0.0,0.0,0.0,0.0,-0.0546875186265,-0.320312619209,0.00390625139698,0.0,0.0,0.0,0.0,0.0,0.0,0.0,0.0,0.0
1583763062010506486,960,1583763061967217063,imu,-0.019165052101,-0.00439453450963,-0.00537109747529,0.999817609787,0.0,0.0,0.0,0.0,0.0,0.0,0.0,0.0,0.0,0.0,0.0,0.0,0.0,0.0,0.0,0.0,0.0,0.0,0.0,0.0,0.0,0.105468787253,-0.207031324506,0.0195312574506,0.0,0.0,0.0,0.0,0.0,0.0,0.0,0.0,0.0
1583763062109614124,961,1583763062026217063,imu,-0.019409192726,-0.00476074544713,-0.00531006231904,0.999756574631,0.0,0.0,0.0,0.0,0.0,0.0,0.0,0.0,0.0,0.0,0.0,0.0,0.0,0.0,0.0,0.0,0.0,0.0,0.0,0.0,0.0,0.105468787253,-0.207031324506,0.0195312574506,0.0,0.0,0.0,0.0,0.0,0.0,0.0,0.0,0.0
1583763062129058747,962,1583763062066217063,imu,-0.019409192726,-0.00476074544713,-0.00531006231904,0.999756574631,0.0,0.0,0.0,0.0,0.0,0.0,0.0,0.0,0.0,0.0,0.0,0.0,0.0,0.0,0.0,0.0,0.0,0.0,0.0,0.0,0.0,0.105468787253,-0.144531294703,-0.0273437593132,0.0,0.0,0.0,0.0,0.0,0.0,0.0,0.0,0.0
1583763062215915474,963,1583763062127217063,imu,-0.0202026516199,-0.00524902716279,-0.00549316778779,0.999756574631,0.0,0.0,0.0,0.0,0.0,0.0,0.0,0.0,0.0,0.0,0.0,0.0,0.0,0.0,0.0,0.0,0.0,0.0,0.0,0.0,0.0,0.105468787253,-0.144531294703,-0.0273437593132,0.0,0.0,0.0,0.0,0.0,0.0,0.0,0.0,0.0
1583763062234331409,964,1583763062167217063,imu,-0.0202026516199,-0.00524902716279,-0.00549316778779,0.999756574631,0.0,0.0,0.0,0.0,0.0,0.0,0.0,0.0,0.0,0.0,0.0,0.0,0.0,0.0,0.0,0.0,0.0,0.0,0.0,0.0,0.0,0.0195312574506,-0.0585937723517,0.101562537253,0.0,0.0,0.0,0.0,0.0,0.0,0.0,0.0,0.0
1583763062267754745,965,1583763062227217063,imu,-0.0211181789637,-0.00512695685029,-0.00610351981595,0.999756574631,0.0,0.0,0.0,0.0,0.0,0.0,0.0,0.0,0.0,0.0,0.0,0.0,0.0,0.0,0.0,0.0,0.0,0.0,0.0,0.0,0.0,0.0195312574506,-0.0585937723517,0.101562537253,0.0,0.0,0.0,0.0,0.0,0.0,0.0,0.0,0.0
1583763062315972222,966,1583763062267217063,imu,-0.0211181789637,-0.00512695685029,-0.00610351981595,0.999756574631,0.0,0.0,0.0,0.0,0.0,0.0,0.0,0.0,0.0,0.0,0.0,0.0,0.0,0.0,0.0,0.0,0.0,0.0,0.0,0.0,0.0,0.113281287253,-0.0742187798023,-0.0195312574506,0.0,0.0,0.0,0.0,0.0,0.0,0.0,0.0,0.0
1583763062413568633,967,1583763062327217063,imu,-0.0217895656824,-0.00518799200654,-0.0057983440347,0.999756574631,0.0,0.0,0.0,0.0,0.0,0.0,0.0,0.0,0.0,0.0,0.0,0.0,0.0,0.0,0.0,0.0,0.0,0.0,0.0,0.0,0.0,0.113281287253,-0.0742187798023,-0.0195312574506,0.0,0.0,0.0,0.0,0.0,0.0,0.0,0.0,0.0
1583763062434253275,968,1583763062366217063,imu,-0.0217895656824,-0.00518799200654,-0.0057983440347,0.999756574631,0.0,0.0,0.0,0.0,0.0,0.0,0.0,0.0,0.0,0.0,0.0,0.0,0.0,0.0,0.0,0.0,0.0,0.0,0.0,0.0,0.0,-0.0117187537253,-0.0273437593132,-0.0117187537253,0.0,0.0,0.0,0.0,0.0,0.0,0.0,0.0,0.0
1583763062516898343,969,1583763062427217063,imu,-0.0223999191076,-0.00543213263154,-0.0057983440347,0.999695539474,0.0,0.0,0.0,0.0,0.0,0.0,0.0,0.0,0.0,0.0,0.0,0.0,0.0,0.0,0.0,0.0,0.0,0.0,0.0,0.0,0.0,-0.0117187537253,-0.0273437593132,-0.0117187537253,0.0,0.0,0.0,0.0,0.0,0.0,0.0,0.0,0.0
1583763062529107161,970,1583763062467217063,imu,-0.0223999191076,-0.00543213263154,-0.0057983440347,0.999695539474,0.0,0.0,0.0,0.0,0.0,0.0,0.0,0.0,0.0,0.0,0.0,0.0,0.0,0.0,0.0,0.0,0.0,0.0,0.0,0.0,0.0,-0.00390625139698,0.0273437593132,-0.00390625139698,0.0,0.0,0.0,0.0,0.0,0.0,0.0,0.0,0.0
1583763062562441040,971,1583763062527217063,imu,-0.0230713058263,-0.00543213263154,-0.0056762737222,0.999695539474,0.0,0.0,0.0,0.0,0.0,0.0,0.0,0.0,0.0,0.0,0.0,0.0,0.0,0.0,0.0,0.0,0.0,0.0,0.0,0.0,0.0,-0.00390625139698,0.0273437593132,-0.00390625139698,0.0,0.0,0.0,0.0,0.0,0.0,0.0,0.0,0.0
1583763062613658777,972,1583763062567217063,imu,-0.0230713058263,-0.00543213263154,-0.0056762737222,0.999695539474,0.0,0.0,0.0,0.0,0.0,0.0,0.0,0.0,0.0,0.0,0.0,0.0,0.0,0.0,0.0,0.0,0.0,0.0,0.0,0.0,0.0,-0.00390625139698,0.273437589407,-0.0351562611759,0.0,0.0,0.0,0.0,0.0,0.0,0.0,0.0,0.0
1583763062709185687,973,1583763062626217063,imu,-0.0235595870763,-0.00543213263154,-0.0055542034097,0.999695539474,0.0,0.0,0.0,0.0,0.0,0.0,0.0,0.0,0.0,0.0,0.0,0.0,0.0,0.0,0.0,0.0,0.0,0.0,0.0,0.0,0.0,-0.00390625139698,0.273437589407,-0.0351562611759,0.0,0.0,0.0,0.0,0.0,0.0,0.0,0.0,0.0
1583763062728558629,974,1583763062666217063,imu,-0.0235595870763,-0.00543213263154,-0.0055542034097,0.999695539474,0.0,0.0,0.0,0.0,0.0,0.0,0.0,0.0,0.0,0.0,0.0,0.0,0.0,0.0,0.0,0.0,0.0,0.0,0.0,0.0,0.0,-0.00390625139698,0.187500059605,0.0117187537253,0.0,0.0,0.0,0.0,0.0,0.0,0.0,0.0,0.0
1583763062815233152,975,1583763062726217063,imu,-0.0236816573888,-0.00549316778779,-0.00561523856595,0.999695539474,0.0,0.0,0.0,0.0,0.0,0.0,0.0,0.0,0.0,0.0,0.0,0.0,0.0,0.0,0.0,0.0,0.0,0.0,0.0,0.0,0.0,-0.00390625139698,0.187500059605,0.0117187537253,0.0,0.0,0.0,0.0,0.0,0.0,0.0,0.0,0.0
1583763062834189472,976,1583763062766217063,imu,-0.0236816573888,-0.00549316778779,-0.00561523856595,0.999695539474,0.0,0.0,0.0,0.0,0.0,0.0,0.0,0.0,0.0,0.0,0.0,0.0,0.0,0.0,0.0,0.0,0.0,0.0,0.0,0.0,0.0,-0.00390625139698,0.117187544703,0.0117187537253,0.0,0.0,0.0,0.0,0.0,0.0,0.0,0.0,0.0
1583763062909066144,977,1583763062826217063,imu,-0.0235595870763,-0.00549316778779,-0.00561523856595,0.999695539474,0.0,0.0,0.0,0.0,0.0,0.0,0.0,0.0,0.0,0.0,0.0,0.0,0.0,0.0,0.0,0.0,0.0,0.0,0.0,0.0,0.0,-0.00390625139698,0.117187544703,0.0117187537253,0.0,0.0,0.0,0.0,0.0,0.0,0.0,0.0,0.0
1583763062935802934,978,1583763062866217063,imu,-0.0235595870763,-0.00549316778779,-0.00561523856595,0.999695539474,0.0,0.0,0.0,0.0,0.0,0.0,0.0,0.0,0.0,0.0,0.0,0.0,0.0,0.0,0.0,0.0,0.0,0.0,0.0,0.0,0.0,-0.00390625139698,0.0312500111759,0.00390625139698,0.0,0.0,0.0,0.0,0.0,0.0,0.0,0.0,0.0
1583763063014712963,979,1583763062926217063,imu,-0.0232544112951,-0.00549316778779,-0.00561523856595,0.999695539474,0.0,0.0,0.0,0.0,0.0,0.0,0.0,0.0,0.0,0.0,0.0,0.0,0.0,0.0,0.0,0.0,0.0,0.0,0.0,0.0,0.0,-0.00390625139698,0.0312500111759,0.00390625139698,0.0,0.0,0.0,0.0,0.0,0.0,0.0,0.0,0.0
1583763063035089020,980,1583763062966217063,imu,-0.0232544112951,-0.00549316778779,-0.00561523856595,0.999695539474,0.0,0.0,0.0,0.0,0.0,0.0,0.0,0.0,0.0,0.0,0.0,0.0,0.0,0.0,0.0,0.0,0.0,0.0,0.0,0.0,0.0,-0.00390625139698,0.0546875186265,0.00390625139698,0.0,0.0,0.0,0.0,0.0,0.0,0.0,0.0,0.0
1583763063117113893,981,1583763063027217063,imu,-0.0228271652013,-0.00549316778779,-0.00561523856595,0.999695539474,0.0,0.0,0.0,0.0,0.0,0.0,0.0,0.0,0.0,0.0,0.0,0.0,0.0,0.0,0.0,0.0,0.0,0.0,0.0,0.0,0.0,-0.00390625139698,0.0546875186265,0.00390625139698,0.0,0.0,0.0,0.0,0.0,0.0,0.0,0.0,0.0
1583763063136215972,982,1583763063068217063,imu,-0.0228271652013,-0.00549316778779,-0.00561523856595,0.999695539474,0.0,0.0,0.0,0.0,0.0,0.0,0.0,0.0,0.0,0.0,0.0,0.0,0.0,0.0,0.0,0.0,0.0,0.0,0.0,0.0,0.0,-0.00390625139698,0.0,-0.0273437593132,0.0,0.0,0.0,0.0,0.0,0.0,0.0,0.0,0.0
1583763063174215996,983,1583763063126217063,imu,-0.0223388839513,-0.0055542034097,-0.00561523856595,0.999695539474,0.0,0.0,0.0,0.0,0.0,0.0,0.0,0.0,0.0,0.0,0.0,0.0,0.0,0.0,0.0,0.0,0.0,0.0,0.0,0.0,0.0,-0.00390625139698,0.0,-0.0273437593132,0.0,0.0,0.0,0.0,0.0,0.0,0.0,0.0,0.0
1583763063209140307,984,1583763063166217063,imu,-0.0223388839513,-0.0055542034097,-0.00561523856595,0.999695539474,0.0,0.0,0.0,0.0,0.0,0.0,0.0,0.0,0.0,0.0,0.0,0.0,0.0,0.0,0.0,0.0,0.0,0.0,0.0,0.0,0.0,-0.0117187537253,-0.00781250279397,0.0117187537253,0.0,0.0,0.0,0.0,0.0,0.0,0.0,0.0,0.0
1583763063299099428,985,1583763063226217063,imu,-0.0220337063074,-0.00561523856595,-0.00561523856595,0.999756574631,0.0,0.0,0.0,0.0,0.0,0.0,0.0,0.0,0.0,0.0,0.0,0.0,0.0,0.0,0.0,0.0,0.0,0.0,0.0,0.0,0.0,-0.0117187537253,-0.00781250279397,0.0117187537253,0.0,0.0,0.0,0.0,0.0,0.0,0.0,0.0,0.0
1583763063315087438,986,1583763063266217063,imu,-0.0220337063074,-0.00561523856595,-0.00561523856595,0.999756574631,0.0,0.0,0.0,0.0,0.0,0.0,0.0,0.0,0.0,0.0,0.0,0.0,0.0,0.0,0.0,0.0,0.0,0.0,0.0,0.0,0.0,-0.0117187537253,0.0312500111759,0.0117187537253,0.0,0.0,0.0,0.0,0.0,0.0,0.0,0.0,0.0
1583763063371277113,987,1583763063327217063,imu,-0.0217285305262,-0.00561523856595,-0.00561523856595,0.999756574631,0.0,0.0,0.0,0.0,0.0,0.0,0.0,0.0,0.0,0.0,0.0,0.0,0.0,0.0,0.0,0.0,0.0,0.0,0.0,0.0,0.0,-0.0117187537253,0.0312500111759,0.0117187537253,0.0,0.0,0.0,0.0,0.0,0.0,0.0,0.0,0.0
1583763063416570928,988,1583763063367217063,imu,-0.0217285305262,-0.00561523856595,-0.00561523856595,0.999756574631,0.0,0.0,0.0,0.0,0.0,0.0,0.0,0.0,0.0,0.0,0.0,0.0,0.0,0.0,0.0,0.0,0.0,0.0,0.0,0.0,0.0,-0.0117187537253,-0.00781250279397,-0.0273437593132,0.0,0.0,0.0,0.0,0.0,0.0,0.0,0.0,0.0
1583763063509322392,989,1583763063427217063,imu,-0.0214843899012,-0.0056762737222,-0.00561523856595,0.999756574631,0.0,0.0,0.0,0.0,0.0,0.0,0.0,0.0,0.0,0.0,0.0,0.0,0.0,0.0,0.0,0.0,0.0,0.0,0.0,0.0,0.0,-0.0117187537253,-0.00781250279397,-0.0273437593132,0.0,0.0,0.0,0.0,0.0,0.0,0.0,0.0,0.0
1583763063535970710,990,1583763063466217063,imu,-0.0214843899012,-0.0056762737222,-0.00561523856595,0.999756574631,0.0,0.0,0.0,0.0,0.0,0.0,0.0,0.0,0.0,0.0,0.0,0.0,0.0,0.0,0.0,0.0,0.0,0.0,0.0,0.0,0.0,-0.0117187537253,-0.0156250055879,0.0117187537253,0.0,0.0,0.0,0.0,0.0,0.0,0.0,0.0,0.0
1583763063568561689,991,1583763063526217063,imu,-0.0211181789637,-0.00573730887845,-0.00561523856595,0.999756574631,0.0,0.0,0.0,0.0,0.0,0.0,0.0,0.0,0.0,0.0,0.0,0.0,0.0,0.0,0.0,0.0,0.0,0.0,0.0,0.0,0.0,-0.0117187537253,-0.0156250055879,0.0117187537253,0.0,0.0,0.0,0.0,0.0,0.0,0.0,0.0,0.0
1583763063612801588,992,1583763063566217063,imu,-0.0211181789637,-0.00573730887845,-0.00561523856595,0.999756574631,0.0,0.0,0.0,0.0,0.0,0.0,0.0,0.0,0.0,0.0,0.0,0.0,0.0,0.0,0.0,0.0,0.0,0.0,0.0,0.0,0.0,-0.0117187537253,0.0234375074506,0.0117187537253,0.0,0.0,0.0,0.0,0.0,0.0,0.0,0.0,0.0
1583763063713008774,993,1583763063626217063,imu,-0.0207519680262,-0.00573730887845,-0.00561523856595,0.999756574631,0.0,0.0,0.0,0.0,0.0,0.0,0.0,0.0,0.0,0.0,0.0,0.0,0.0,0.0,0.0,0.0,0.0,0.0,0.0,0.0,0.0,-0.0117187537253,0.0234375074506,0.0117187537253,0.0,0.0,0.0,0.0,0.0,0.0,0.0,0.0,0.0
1583763063735355732,994,1583763063666217063,imu,-0.0207519680262,-0.00573730887845,-0.00561523856595,0.999756574631,0.0,0.0,0.0,0.0,0.0,0.0,0.0,0.0,0.0,0.0,0.0,0.0,0.0,0.0,0.0,0.0,0.0,0.0,0.0,0.0,0.0,-0.0117187537253,-0.0234375074506,-0.0273437593132,0.0,0.0,0.0,0.0,0.0,0.0,0.0,0.0,0.0
1583763063774205864,995,1583763063726217063,imu,-0.0203857570887,-0.0057983440347,-0.0055542034097,0.999756574631,0.0,0.0,0.0,0.0,0.0,0.0,0.0,0.0,0.0,0.0,0.0,0.0,0.0,0.0,0.0,0.0,0.0,0.0,0.0,0.0,0.0,-0.0117187537253,-0.0234375074506,-0.0273437593132,0.0,0.0,0.0,0.0,0.0,0.0,0.0,0.0,0.0
1583763063809570021,996,1583763063766217063,imu,-0.0203857570887,-0.0057983440347,-0.0055542034097,0.999756574631,0.0,0.0,0.0,0.0,0.0,0.0,0.0,0.0,0.0,0.0,0.0,0.0,0.0,0.0,0.0,0.0,0.0,0.0,0.0,0.0,0.0,-0.0117187537253,0.0156250055879,0.0117187537253,0.0,0.0,0.0,0.0,0.0,0.0,0.0,0.0,0.0
1583763063909361665,997,1583763063826217063,imu,-0.0201416164637,-0.00585937919095,-0.0055542034097,0.999756574631,0.0,0.0,0.0,0.0,0.0,0.0,0.0,0.0,0.0,0.0,0.0,0.0,0.0,0.0,0.0,0.0,0.0,0.0,0.0,0.0,0.0,-0.0117187537253,0.0156250055879,0.0117187537253,0.0,0.0,0.0,0.0,0.0,0.0,0.0,0.0,0.0
1583763063936317769,998,1583763063866217063,imu,-0.0201416164637,-0.00585937919095,-0.0055542034097,0.999756574631,0.0,0.0,0.0,0.0,0.0,0.0,0.0,0.0,0.0,0.0,0.0,0.0,0.0,0.0,0.0,0.0,0.0,0.0,0.0,0.0,0.0,-0.0117187537253,-0.0156250055879,0.0117187537253,0.0,0.0,0.0,0.0,0.0,0.0,0.0,0.0,0.0
1583763063969450627,999,1583763063926217063,imu,-0.0199585109949,-0.0057983440347,-0.00561523856595,0.999756574631,0.0,0.0,0.0,0.0,0.0,0.0,0.0,0.0,0.0,0.0,0.0,0.0,0.0,0.0,0.0,0.0,0.0,0.0,0.0,0.0,0.0,-0.0117187537253,-0.0156250055879,0.0117187537253,0.0,0.0,0.0,0.0,0.0,0.0,0.0,0.0,0.0
1583763064017477469,1000,1583763063966217063,imu,-0.0199585109949,-0.0057983440347,-0.00561523856595,0.999756574631,0.0,0.0,0.0,0.0,0.0,0.0,0.0,0.0,0.0,0.0,0.0,0.0,0.0,0.0,0.0,0.0,0.0,0.0,0.0,0.0,0.0,-0.0468750149012,-0.0234375074506,0.0117187537253,0.0,0.0,0.0,0.0,0.0,0.0,0.0,0.0,0.0
1583763064109365684,1001,1583763064027217063,imu,-0.0197754055262,-0.00573730887845,-0.00561523856595,0.999756574631,0.0,0.0,0.0,0.0,0.0,0.0,0.0,0.0,0.0,0.0,0.0,0.0,0.0,0.0,0.0,0.0,0.0,0.0,0.0,0.0,0.0,-0.0468750149012,-0.0234375074506,0.0117187537253,0.0,0.0,0.0,0.0,0.0,0.0,0.0,0.0,0.0
1583763064134226703,1002,1583763064067217063,imu,-0.0197754055262,-0.00573730887845,-0.00561523856595,0.999756574631,0.0,0.0,0.0,0.0,0.0,0.0,0.0,0.0,0.0,0.0,0.0,0.0,0.0,0.0,0.0,0.0,0.0,0.0,0.0,0.0,0.0,0.00390625139698,-0.0234375074506,0.00390625139698,0.0,0.0,0.0,0.0,0.0,0.0,0.0,0.0,0.0
1583763064169327070,1003,1583763064126217063,imu,-0.0195312649012,-0.00561523856595,-0.00561523856595,0.999756574631,0.0,0.0,0.0,0.0,0.0,0.0,0.0,0.0,0.0,0.0,0.0,0.0,0.0,0.0,0.0,0.0,0.0,0.0,0.0,0.0,0.0,0.00390625139698,-0.0234375074506,0.00390625139698,0.0,0.0,0.0,0.0,0.0,0.0,0.0,0.0,0.0
1583763064214216395,1004,1583763064167217063,imu,-0.0195312649012,-0.00561523856595,-0.00561523856595,0.999756574631,0.0,0.0,0.0,0.0,0.0,0.0,0.0,0.0,0.0,0.0,0.0,0.0,0.0,0.0,0.0,0.0,0.0,0.0,0.0,0.0,0.0,0.00390625139698,0.0156250055879,0.00390625139698,0.0,0.0,0.0,0.0,0.0,0.0,0.0,0.0,0.0
1583763064271022788,1005,1583763064227217063,imu,-0.0192871224135,-0.0055542034097,-0.0055542034097,0.999756574631,0.0,0.0,0.0,0.0,0.0,0.0,0.0,0.0,0.0,0.0,0.0,0.0,0.0,0.0,0.0,0.0,0.0,0.0,0.0,0.0,0.0,0.00390625139698,0.0156250055879,0.00390625139698,0.0,0.0,0.0,0.0,0.0,0.0,0.0,0.0,0.0
1583763064315216169,1006,1583763064267217063,imu,-0.0192871224135,-0.0055542034097,-0.0055542034097,0.999756574631,0.0,0.0,0.0,0.0,0.0,0.0,0.0,0.0,0.0,0.0,0.0,0.0,0.0,0.0,0.0,0.0,0.0,0.0,0.0,0.0,0.0,0.00390625139698,0.0156250055879,0.00390625139698,0.0,0.0,0.0,0.0,0.0,0.0,0.0,0.0,0.0
1583763064366664803,1007,1583763064326217063,imu,-0.0190429817885,-0.00561523856595,-0.0055542034097,0.999817609787,0.0,0.0,0.0,0.0,0.0,0.0,0.0,0.0,0.0,0.0,0.0,0.0,0.0,0.0,0.0,0.0,0.0,0.0,0.0,0.0,0.0,0.00390625139698,0.0156250055879,0.00390625139698,0.0,0.0,0.0,0.0,0.0,0.0,0.0,0.0,0.0
1583763064414772823,1008,1583763064366217063,imu,-0.0190429817885,-0.00561523856595,-0.0055542034097,0.999817609787,0.0,0.0,0.0,0.0,0.0,0.0,0.0,0.0,0.0,0.0,0.0,0.0,0.0,0.0,0.0,0.0,0.0,0.0,0.0,0.0,0.0,-0.00390625139698,0.00781250279397,-0.0273437593132,0.0,0.0,0.0,0.0,0.0,0.0,0.0,0.0,0.0
1583763064509051161,1009,1583763064425217063,imu,-0.0187988411635,-0.00561523856595,-0.00561523856595,0.999817609787,0.0,0.0,0.0,0.0,0.0,0.0,0.0,0.0,0.0,0.0,0.0,0.0,0.0,0.0,0.0,0.0,0.0,0.0,0.0,0.0,0.0,-0.00390625139698,0.00781250279397,-0.0273437593132,0.0,0.0,0.0,0.0,0.0,0.0,0.0,0.0,0.0
1583763064526153916,1010,1583763064473635990,imu,-0.0187988411635,-0.00561523856595,-0.00561523856595,0.999817609787,0.0,0.0,0.0,0.0,0.0,0.0,0.0,0.0,0.0,0.0,0.0,0.0,0.0,0.0,0.0,0.0,0.0,0.0,0.0,0.0,0.0,-0.00390625139698,0.00781250279397,0.0117187537253,0.0,0.0,0.0,0.0,0.0,0.0,0.0,0.0,0.0
1583763064569973668,1011,1583763064534635990,imu,-0.018676770851,-0.0056762737222,-0.00561523856595,0.999817609787,0.0,0.0,0.0,0.0,0.0,0.0,0.0,0.0,0.0,0.0,0.0,0.0,0.0,0.0,0.0,0.0,0.0,0.0,0.0,0.0,0.0,-0.00390625139698,0.00781250279397,0.0117187537253,0.0,0.0,0.0,0.0,0.0,0.0,0.0,0.0,0.0
1583763064617186157,1012,1583763064573635990,imu,-0.018676770851,-0.0056762737222,-0.00561523856595,0.999817609787,0.0,0.0,0.0,0.0,0.0,0.0,0.0,0.0,0.0,0.0,0.0,0.0,0.0,0.0,0.0,0.0,0.0,0.0,0.0,0.0,0.0,-0.00390625139698,0.00781250279397,0.0117187537253,0.0,0.0,0.0,0.0,0.0,0.0,0.0,0.0,0.0
1583763064674208575,1013,1583763064633635990,imu,-0.0184936653823,-0.00561523856595,-0.00561523856595,0.999817609787,0.0,0.0,0.0,0.0,0.0,0.0,0.0,0.0,0.0,0.0,0.0,0.0,0.0,0.0,0.0,0.0,0.0,0.0,0.0,0.0,0.0,-0.00390625139698,0.00781250279397,0.0117187537253,0.0,0.0,0.0,0.0,0.0,0.0,0.0,0.0,0.0
1583763064714297250,1014,1583763064673635990,imu,-0.0184936653823,-0.00561523856595,-0.00561523856595,0.999817609787,0.0,0.0,0.0,0.0,0.0,0.0,0.0,0.0,0.0,0.0,0.0,0.0,0.0,0.0,0.0,0.0,0.0,0.0,0.0,0.0,0.0,-0.00390625139698,0.0,-0.0273437593132,0.0,0.0,0.0,0.0,0.0,0.0,0.0,0.0,0.0
1583763064836379195,1015,1583763064734635990,imu,-0.0183105599135,-0.0056762737222,-0.0055542034097,0.999817609787,0.0,0.0,0.0,0.0,0.0,0.0,0.0,0.0,0.0,0.0,0.0,0.0,0.0,0.0,0.0,0.0,0.0,0.0,0.0,0.0,0.0,-0.00390625139698,0.0,-0.0273437593132,0.0,0.0,0.0,0.0,0.0,0.0,0.0,0.0,0.0
1583763064898814157,1016,1583763064772635990,imu,-0.0183105599135,-0.0056762737222,-0.0055542034097,0.999817609787,0.0,0.0,0.0,0.0,0.0,0.0,0.0,0.0,0.0,0.0,0.0,0.0,0.0,0.0,0.0,0.0,0.0,0.0,0.0,0.0,0.0,-0.00390625139698,-0.0312500111759,0.0117187537253,0.0,0.0,0.0,0.0,0.0,0.0,0.0,0.0,0.0
1583763064916624014,1017,1583763064833635990,imu,-0.0182495247573,-0.0056762737222,-0.0055542034097,0.999817609787,0.0,0.0,0.0,0.0,0.0,0.0,0.0,0.0,0.0,0.0,0.0,0.0,0.0,0.0,0.0,0.0,0.0,0.0,0.0,0.0,0.0,-0.00390625139698,-0.0312500111759,0.0117187537253,0.0,0.0,0.0,0.0,0.0,0.0,0.0,0.0,0.0
1583763064934918108,1018,1583763064873635990,imu,-0.0182495247573,-0.0056762737222,-0.0055542034097,0.999817609787,0.0,0.0,0.0,0.0,0.0,0.0,0.0,0.0,0.0,0.0,0.0,0.0,0.0,0.0,0.0,0.0,0.0,0.0,0.0,0.0,0.0,-0.00390625139698,0.0156250055879,-0.0273437593132,0.0,0.0,0.0,0.0,0.0,0.0,0.0,0.0,0.0
1583763065011249186,1019,1583763064933635990,imu,-0.018188489601,-0.00561523856595,-0.0055542034097,0.999817609787,0.0,0.0,0.0,0.0,0.0,0.0,0.0,0.0,0.0,0.0,0.0,0.0,0.0,0.0,0.0,0.0,0.0,0.0,0.0,0.0,0.0,-0.00390625139698,0.0156250055879,-0.0273437593132,0.0,0.0,0.0,0.0,0.0,0.0,0.0,0.0,0.0
1583763065021149689,1020,1583763064974635990,imu,-0.018188489601,-0.00561523856595,-0.0055542034097,0.999817609787,0.0,0.0,0.0,0.0,0.0,0.0,0.0,0.0,0.0,0.0,0.0,0.0,0.0,0.0,0.0,0.0,0.0,0.0,0.0,0.0,0.0,0.00390625139698,-0.0156250055879,0.0117187537253,0.0,0.0,0.0,0.0,0.0,0.0,0.0,0.0,0.0
1583763065113982774,1021,1583763065034635990,imu,-0.0181274544448,-0.0055542034097,-0.0055542034097,0.999817609787,0.0,0.0,0.0,0.0,0.0,0.0,0.0,0.0,0.0,0.0,0.0,0.0,0.0,0.0,0.0,0.0,0.0,0.0,0.0,0.0,0.0,0.00390625139698,-0.0156250055879,0.0117187537253,0.0,0.0,0.0,0.0,0.0,0.0,0.0,0.0,0.0
1583763065134687989,1022,1583763065072635990,imu,-0.0181274544448,-0.0055542034097,-0.0055542034097,0.999817609787,0.0,0.0,0.0,0.0,0.0,0.0,0.0,0.0,0.0,0.0,0.0,0.0,0.0,0.0,0.0,0.0,0.0,0.0,0.0,0.0,0.0,0.00390625139698,0.0234375074506,0.0117187537253,0.0,0.0,0.0,0.0,0.0,0.0,0.0,0.0,0.0
1583763065199135974,1023,1583763065134635990,imu,-0.0181274544448,-0.0055542034097,-0.00561523856595,0.999817609787,0.0,0.0,0.0,0.0,0.0,0.0,0.0,0.0,0.0,0.0,0.0,0.0,0.0,0.0,0.0,0.0,0.0,0.0,0.0,0.0,0.0,0.00390625139698,0.0234375074506,0.0117187537253,0.0,0.0,0.0,0.0,0.0,0.0,0.0,0.0,0.0
1583763065215488414,1024,1583763065174635990,imu,-0.0181274544448,-0.0055542034097,-0.00561523856595,0.999817609787,0.0,0.0,0.0,0.0,0.0,0.0,0.0,0.0,0.0,0.0,0.0,0.0,0.0,0.0,0.0,0.0,0.0,0.0,0.0,0.0,0.0,0.00390625139698,0.0156250055879,0.0117187537253,0.0,0.0,0.0,0.0,0.0,0.0,0.0,0.0,0.0
1583763065316694859,1025,1583763065233635990,imu,-0.0180664192885,-0.0055542034097,-0.00561523856595,0.999817609787,0.0,0.0,0.0,0.0,0.0,0.0,0.0,0.0,0.0,0.0,0.0,0.0,0.0,0.0,0.0,0.0,0.0,0.0,0.0,0.0,0.0,0.00390625139698,0.0156250055879,0.0117187537253,0.0,0.0,0.0,0.0,0.0,0.0,0.0,0.0,0.0
1583763065325904542,1026,1583763065272635990,imu,-0.0180664192885,-0.0055542034097,-0.00561523856595,0.999817609787,0.0,0.0,0.0,0.0,0.0,0.0,0.0,0.0,0.0,0.0,0.0,0.0,0.0,0.0,0.0,0.0,0.0,0.0,0.0,0.0,0.0,-0.00390625139698,0.0156250055879,0.00390625139698,0.0,0.0,0.0,0.0,0.0,0.0,0.0,0.0,0.0
1583763065409152606,1027,1583763065334635990,imu,-0.0180053841323,-0.00561523856595,-0.00561523856595,0.999817609787,0.0,0.0,0.0,0.0,0.0,0.0,0.0,0.0,0.0,0.0,0.0,0.0,0.0,0.0,0.0,0.0,0.0,0.0,0.0,0.0,0.0,-0.00390625139698,0.0156250055879,0.00390625139698,0.0,0.0,0.0,0.0,0.0,0.0,0.0,0.0,0.0
1583763065439503992,1028,1583763065374635990,imu,-0.0180053841323,-0.00561523856595,-0.00561523856595,0.999817609787,0.0,0.0,0.0,0.0,0.0,0.0,0.0,0.0,0.0,0.0,0.0,0.0,0.0,0.0,0.0,0.0,0.0,0.0,0.0,0.0,0.0,-0.0117187537253,0.0156250055879,-0.0273437593132,0.0,0.0,0.0,0.0,0.0,0.0,0.0,0.0,0.0
1583763065514221158,1029,1583763065433635990,imu,-0.0178833138198,-0.0055542034097,-0.00561523856595,0.999817609787,0.0,0.0,0.0,0.0,0.0,0.0,0.0,0.0,0.0,0.0,0.0,0.0,0.0,0.0,0.0,0.0,0.0,0.0,0.0,0.0,0.0,-0.0117187537253,0.0156250055879,-0.0273437593132,0.0,0.0,0.0,0.0,0.0,0.0,0.0,0.0,0.0
1583763065544245185,1030,1583763065473635990,imu,-0.0178833138198,-0.0055542034097,-0.00561523856595,0.999817609787,0.0,0.0,0.0,0.0,0.0,0.0,0.0,0.0,0.0,0.0,0.0,0.0,0.0,0.0,0.0,0.0,0.0,0.0,0.0,0.0,0.0,0.00390625139698,0.0,-0.0273437593132,0.0,0.0,0.0,0.0,0.0,0.0,0.0,0.0,0.0
1583763065576112156,1031,1583763065533635990,imu,-0.0177612435073,-0.0055542034097,-0.00561523856595,0.999817609787,0.0,0.0,0.0,0.0,0.0,0.0,0.0,0.0,0.0,0.0,0.0,0.0,0.0,0.0,0.0,0.0,0.0,0.0,0.0,0.0,0.0,0.00390625139698,0.0,-0.0273437593132,0.0,0.0,0.0,0.0,0.0,0.0,0.0,0.0,0.0
1583763065633358599,1032,1583763065572635990,imu,-0.0177612435073,-0.0055542034097,-0.00561523856595,0.999817609787,0.0,0.0,0.0,0.0,0.0,0.0,0.0,0.0,0.0,0.0,0.0,0.0,0.0,0.0,0.0,0.0,0.0,0.0,0.0,0.0,0.0,0.00390625139698,-0.0312500111759,0.0195312574506,0.0,0.0,0.0,0.0,0.0,0.0,0.0,0.0,0.0
1583763065710407543,1033,1583763065634635990,imu,-0.0177612435073,-0.00549316778779,-0.00561523856595,0.999817609787,0.0,0.0,0.0,0.0,0.0,0.0,0.0,0.0,0.0,0.0,0.0,0.0,0.0,0.0,0.0,0.0,0.0,0.0,0.0,0.0,0.0,0.00390625139698,-0.0312500111759,0.0195312574506,0.0,0.0,0.0,0.0,0.0,0.0,0.0,0.0,0.0
1583763065736624363,1034,1583763065675635990,imu,-0.0177612435073,-0.00549316778779,-0.00561523856595,0.999817609787,0.0,0.0,0.0,0.0,0.0,0.0,0.0,0.0,0.0,0.0,0.0,0.0,0.0,0.0,0.0,0.0,0.0,0.0,0.0,0.0,0.0,0.00390625139698,0.0156250055879,0.0117187537253,0.0,0.0,0.0,0.0,0.0,0.0,0.0,0.0,0.0
1583763065815418569,1035,1583763065734635990,imu,-0.0177612435073,-0.00543213263154,-0.00561523856595,0.999817609787,0.0,0.0,0.0,0.0,0.0,0.0,0.0,0.0,0.0,0.0,0.0,0.0,0.0,0.0,0.0,0.0,0.0,0.0,0.0,0.0,0.0,0.00390625139698,0.0156250055879,0.0117187537253,0.0,0.0,0.0,0.0,0.0,0.0,0.0,0.0,0.0
1583763065820791029,1036,1583763065774635990,imu,-0.0177612435073,-0.00543213263154,-0.00561523856595,0.999817609787,0.0,0.0,0.0,0.0,0.0,0.0,0.0,0.0,0.0,0.0,0.0,0.0,0.0,0.0,0.0,0.0,0.0,0.0,0.0,0.0,0.0,-0.00390625139698,0.0156250055879,0.0117187537253,0.0,0.0,0.0,0.0,0.0,0.0,0.0,0.0,0.0
1583763065909311097,1037,1583763065833635990,imu,-0.0178222786635,-0.0055542034097,-0.00561523856595,0.999817609787,0.0,0.0,0.0,0.0,0.0,0.0,0.0,0.0,0.0,0.0,0.0,0.0,0.0,0.0,0.0,0.0,0.0,0.0,0.0,0.0,0.0,-0.00390625139698,0.0156250055879,0.0117187537253,0.0,0.0,0.0,0.0,0.0,0.0,0.0,0.0,0.0
1583763065920863516,1038,1583763065873635990,imu,-0.0178222786635,-0.0055542034097,-0.00561523856595,0.999817609787,0.0,0.0,0.0,0.0,0.0,0.0,0.0,0.0,0.0,0.0,0.0,0.0,0.0,0.0,0.0,0.0,0.0,0.0,0.0,0.0,0.0,-0.00390625139698,0.0156250055879,0.00390625139698,0.0,0.0,0.0,0.0,0.0,0.0,0.0,0.0,0.0
1583763066009986966,1039,1583763065933635990,imu,-0.0177612435073,-0.0055542034097,-0.00561523856595,0.999817609787,0.0,0.0,0.0,0.0,0.0,0.0,0.0,0.0,0.0,0.0,0.0,0.0,0.0,0.0,0.0,0.0,0.0,0.0,0.0,0.0,0.0,-0.00390625139698,0.0156250055879,0.00390625139698,0.0,0.0,0.0,0.0,0.0,0.0,0.0,0.0,0.0
1583763066020418786,1040,1583763065973635990,imu,-0.0177612435073,-0.0055542034097,-0.00561523856595,0.999817609787,0.0,0.0,0.0,0.0,0.0,0.0,0.0,0.0,0.0,0.0,0.0,0.0,0.0,0.0,0.0,0.0,0.0,0.0,0.0,0.0,0.0,-0.00390625139698,0.00781250279397,0.00390625139698,0.0,0.0,0.0,0.0,0.0,0.0,0.0,0.0,0.0
1583763066069993703,1041,1583763066034635990,imu,-0.0176391731948,-0.0055542034097,-0.00561523856595,0.999817609787,0.0,0.0,0.0,0.0,0.0,0.0,0.0,0.0,0.0,0.0,0.0,0.0,0.0,0.0,0.0,0.0,0.0,0.0,0.0,0.0,0.0,-0.00390625139698,0.00781250279397,0.00390625139698,0.0,0.0,0.0,0.0,0.0,0.0,0.0,0.0,0.0
1583763066120952399,1042,1583763066074635990,imu,-0.0176391731948,-0.0055542034097,-0.00561523856595,0.999817609787,0.0,0.0,0.0,0.0,0.0,0.0,0.0,0.0,0.0,0.0,0.0,0.0,0.0,0.0,0.0,0.0,0.0,0.0,0.0,0.0,0.0,-0.00390625139698,0.00781250279397,0.00390625139698,0.0,0.0,0.0,0.0,0.0,0.0,0.0,0.0,0.0
1583763066209467264,1043,1583763066133635990,imu,-0.0176391731948,-0.00561523856595,-0.00561523856595,0.999817609787,0.0,0.0,0.0,0.0,0.0,0.0,0.0,0.0,0.0,0.0,0.0,0.0,0.0,0.0,0.0,0.0,0.0,0.0,0.0,0.0,0.0,-0.00390625139698,0.00781250279397,0.00390625139698,0.0,0.0,0.0,0.0,0.0,0.0,0.0,0.0,0.0
1583763066219119459,1044,1583763066173635990,imu,-0.0176391731948,-0.00561523856595,-0.00561523856595,0.999817609787,0.0,0.0,0.0,0.0,0.0,0.0,0.0,0.0,0.0,0.0,0.0,0.0,0.0,0.0,0.0,0.0,0.0,0.0,0.0,0.0,0.0,-0.0117187537253,-0.0312500111759,0.00390625139698,0.0,0.0,0.0,0.0,0.0,0.0,0.0,0.0,0.0
1583763066297762924,1045,1583763066234635990,imu,-0.0175781380385,-0.00561523856595,-0.00561523856595,0.999817609787,0.0,0.0,0.0,0.0,0.0,0.0,0.0,0.0,0.0,0.0,0.0,0.0,0.0,0.0,0.0,0.0,0.0,0.0,0.0,0.0,0.0,-0.0117187537253,-0.0312500111759,0.00390625139698,0.0,0.0,0.0,0.0,0.0,0.0,0.0,0.0,0.0
1583763066325502705,1046,1583763066274635990,imu,-0.0175781380385,-0.00561523856595,-0.00561523856595,0.999817609787,0.0,0.0,0.0,0.0,0.0,0.0,0.0,0.0,0.0,0.0,0.0,0.0,0.0,0.0,0.0,0.0,0.0,0.0,0.0,0.0,0.0,-0.00390625139698,-0.0390625149012,0.00390625139698,0.0,0.0,0.0,0.0,0.0,0.0,0.0,0.0,0.0
1583763066415886347,1047,1583763066333635990,imu,-0.0176391731948,-0.00561523856595,-0.00561523856595,0.999817609787,0.0,0.0,0.0,0.0,0.0,0.0,0.0,0.0,0.0,0.0,0.0,0.0,0.0,0.0,0.0,0.0,0.0,0.0,0.0,0.0,0.0,-0.00390625139698,-0.0390625149012,0.00390625139698,0.0,0.0,0.0,0.0,0.0,0.0,0.0,0.0,0.0
1583763066434602870,1048,1583763066373635990,imu,-0.0176391731948,-0.00561523856595,-0.00561523856595,0.999817609787,0.0,0.0,0.0,0.0,0.0,0.0,0.0,0.0,0.0,0.0,0.0,0.0,0.0,0.0,0.0,0.0,0.0,0.0,0.0,0.0,0.0,-0.00390625139698,-0.0234375074506,0.00390625139698,0.0,0.0,0.0,0.0,0.0,0.0,0.0,0.0,0.0
1583763066474146556,1049,1583763066433635990,imu,-0.0177612435073,-0.00561523856595,-0.00561523856595,0.999817609787,0.0,0.0,0.0,0.0,0.0,0.0,0.0,0.0,0.0,0.0,0.0,0.0,0.0,0.0,0.0,0.0,0.0,0.0,0.0,0.0,0.0,-0.00390625139698,-0.0234375074506,0.00390625139698,0.0,0.0,0.0,0.0,0.0,0.0,0.0,0.0,0.0
1583763066515703565,1050,1583763066473635990,imu,-0.0177612435073,-0.00561523856595,-0.00561523856595,0.999817609787,0.0,0.0,0.0,0.0,0.0,0.0,0.0,0.0,0.0,0.0,0.0,0.0,0.0,0.0,0.0,0.0,0.0,0.0,0.0,0.0,0.0,-0.00390625139698,0.0156250055879,-0.0351562611759,0.0,0.0,0.0,0.0,0.0,0.0,0.0,0.0,0.0
1583763066609327816,1051,1583763066533635990,imu,-0.017700208351,-0.0055542034097,-0.0055542034097,0.999817609787,0.0,0.0,0.0,0.0,0.0,0.0,0.0,0.0,0.0,0.0,0.0,0.0,0.0,0.0,0.0,0.0,0.0,0.0,0.0,0.0,0.0,-0.00390625139698,0.0156250055879,-0.0351562611759,0.0,0.0,0.0,0.0,0.0,0.0,0.0,0.0,0.0
1583763066619571166,1052,1583763066573635990,imu,-0.017700208351,-0.0055542034097,-0.0055542034097,0.999817609787,0.0,0.0,0.0,0.0,0.0,0.0,0.0,0.0,0.0,0.0,0.0,0.0,0.0,0.0,0.0,0.0,0.0,0.0,0.0,0.0,0.0,-0.00390625139698,0.0156250055879,0.0117187537253,0.0,0.0,0.0,0.0,0.0,0.0,0.0,0.0,0.0
1583763066716799330,1053,1583763066633635990,imu,-0.0176391731948,-0.0055542034097,-0.00561523856595,0.999817609787,0.0,0.0,0.0,0.0,0.0,0.0,0.0,0.0,0.0,0.0,0.0,0.0,0.0,0.0,0.0,0.0,0.0,0.0,0.0,0.0,0.0,-0.00390625139698,0.0156250055879,0.0117187537253,0.0,0.0,0.0,0.0,0.0,0.0,0.0,0.0,0.0
1583763066735979379,1054,1583763066673635990,imu,-0.0176391731948,-0.0055542034097,-0.00561523856595,0.999817609787,0.0,0.0,0.0,0.0,0.0,0.0,0.0,0.0,0.0,0.0,0.0,0.0,0.0,0.0,0.0,0.0,0.0,0.0,0.0,0.0,0.0,-0.00390625139698,0.00781250279397,0.0117187537253,0.0,0.0,0.0,0.0,0.0,0.0,0.0,0.0,0.0
1583763066771053609,1055,1583763066733635990,imu,-0.0176391731948,-0.0055542034097,-0.0055542034097,0.999817609787,0.0,0.0,0.0,0.0,0.0,0.0,0.0,0.0,0.0,0.0,0.0,0.0,0.0,0.0,0.0,0.0,0.0,0.0,0.0,0.0,0.0,-0.00390625139698,0.00781250279397,0.0117187537253,0.0,0.0,0.0,0.0,0.0,0.0,0.0,0.0,0.0
1583763066819766564,1056,1583763066773635990,imu,-0.0176391731948,-0.0055542034097,-0.0055542034097,0.999817609787,0.0,0.0,0.0,0.0,0.0,0.0,0.0,0.0,0.0,0.0,0.0,0.0,0.0,0.0,0.0,0.0,0.0,0.0,0.0,0.0,0.0,-0.00390625139698,0.00781250279397,0.0117187537253,0.0,0.0,0.0,0.0,0.0,0.0,0.0,0.0,0.0
1583763066909472767,1057,1583763066833635990,imu,-0.0176391731948,-0.0055542034097,-0.00561523856595,0.999817609787,0.0,0.0,0.0,0.0,0.0,0.0,0.0,0.0,0.0,0.0,0.0,0.0,0.0,0.0,0.0,0.0,0.0,0.0,0.0,0.0,0.0,-0.00390625139698,0.00781250279397,0.0117187537253,0.0,0.0,0.0,0.0,0.0,0.0,0.0,0.0,0.0
1583763066936426015,1058,1583763066873635990,imu,-0.0176391731948,-0.0055542034097,-0.00561523856595,0.999817609787,0.0,0.0,0.0,0.0,0.0,0.0,0.0,0.0,0.0,0.0,0.0,0.0,0.0,0.0,0.0,0.0,0.0,0.0,0.0,0.0,0.0,-0.00390625139698,-0.0234375074506,0.0117187537253,0.0,0.0,0.0,0.0,0.0,0.0,0.0,0.0,0.0
1583763067016136206,1059,1583763066933635990,imu,-0.0177612435073,-0.0055542034097,-0.0056762737222,0.999817609787,0.0,0.0,0.0,0.0,0.0,0.0,0.0,0.0,0.0,0.0,0.0,0.0,0.0,0.0,0.0,0.0,0.0,0.0,0.0,0.0,0.0,-0.00390625139698,-0.0234375074506,0.0117187537253,0.0,0.0,0.0,0.0,0.0,0.0,0.0,0.0,0.0
1583763067042928575,1060,1583763066975635990,imu,-0.0177612435073,-0.0055542034097,-0.0056762737222,0.999817609787,0.0,0.0,0.0,0.0,0.0,0.0,0.0,0.0,0.0,0.0,0.0,0.0,0.0,0.0,0.0,0.0,0.0,0.0,0.0,0.0,0.0,-0.00390625139698,-0.0156250055879,0.0117187537253,0.0,0.0,0.0,0.0,0.0,0.0,0.0,0.0,0.0
1583763067076205064,1061,1583763067036732015,imu,-0.0178222786635,-0.00561523856595,-0.0056762737222,0.999817609787,0.0,0.0,0.0,0.0,0.0,0.0,0.0,0.0,0.0,0.0,0.0,0.0,0.0,0.0,0.0,0.0,0.0,0.0,0.0,0.0,0.0,-0.00390625139698,-0.0156250055879,0.0117187537253,0.0,0.0,0.0,0.0,0.0,0.0,0.0,0.0,0.0
1583763067122887592,1062,1583763067076732015,imu,-0.0178222786635,-0.00561523856595,-0.0056762737222,0.999817609787,0.0,0.0,0.0,0.0,0.0,0.0,0.0,0.0,0.0,0.0,0.0,0.0,0.0,0.0,0.0,0.0,0.0,0.0,0.0,0.0,0.0,-0.00390625139698,0.0312500111759,0.0117187537253,0.0,0.0,0.0,0.0,0.0,0.0,0.0,0.0,0.0
1583763067209384697,1063,1583763067138732015,imu,-0.0178222786635,-0.00561523856595,-0.00561523856595,0.999817609787,0.0,0.0,0.0,0.0,0.0,0.0,0.0,0.0,0.0,0.0,0.0,0.0,0.0,0.0,0.0,0.0,0.0,0.0,0.0,0.0,0.0,-0.00390625139698,0.0312500111759,0.0117187537253,0.0,0.0,0.0,0.0,0.0,0.0,0.0,0.0,0.0
1583763067234484640,1064,1583763067178732015,imu,-0.0178222786635,-0.00561523856595,-0.00561523856595,0.999817609787,0.0,0.0,0.0,0.0,0.0,0.0,0.0,0.0,0.0,0.0,0.0,0.0,0.0,0.0,0.0,0.0,0.0,0.0,0.0,0.0,0.0,-0.00390625139698,-0.0156250055879,0.00390625139698,0.0,0.0,0.0,0.0,0.0,0.0,0.0,0.0,0.0
1583763067290008371,1065,1583763067237732015,imu,-0.0178833138198,-0.0055542034097,-0.00561523856595,0.999817609787,0.0,0.0,0.0,0.0,0.0,0.0,0.0,0.0,0.0,0.0,0.0,0.0,0.0,0.0,0.0,0.0,0.0,0.0,0.0,0.0,0.0,-0.00390625139698,-0.0156250055879,0.00390625139698,0.0,0.0,0.0,0.0,0.0,0.0,0.0,0.0,0.0
1583763067322031271,1066,1583763067277732015,imu,-0.0178833138198,-0.0055542034097,-0.00561523856595,0.999817609787,0.0,0.0,0.0,0.0,0.0,0.0,0.0,0.0,0.0,0.0,0.0,0.0,0.0,0.0,0.0,0.0,0.0,0.0,0.0,0.0,0.0,-0.00390625139698,-0.00781250279397,0.00390625139698,0.0,0.0,0.0,0.0,0.0,0.0,0.0,0.0,0.0
1583763067409251532,1067,1583763067337732015,imu,-0.0180053841323,-0.0055542034097,-0.0056762737222,0.999817609787,0.0,0.0,0.0,0.0,0.0,0.0,0.0,0.0,0.0,0.0,0.0,0.0,0.0,0.0,0.0,0.0,0.0,0.0,0.0,0.0,0.0,-0.00390625139698,-0.00781250279397,0.00390625139698,0.0,0.0,0.0,0.0,0.0,0.0,0.0,0.0,0.0
1583763067424786537,1068,1583763067378732015,imu,-0.0180053841323,-0.0055542034097,-0.0056762737222,0.999817609787,0.0,0.0,0.0,0.0,0.0,0.0,0.0,0.0,0.0,0.0,0.0,0.0,0.0,0.0,0.0,0.0,0.0,0.0,0.0,0.0,0.0,-0.00390625139698,-0.00781250279397,0.00390625139698,0.0,0.0,0.0,0.0,0.0,0.0,0.0,0.0,0.0
1583763067515774399,1069,1583763067438732015,imu,-0.0180664192885,-0.00561523856595,-0.0056762737222,0.999817609787,0.0,0.0,0.0,0.0,0.0,0.0,0.0,0.0,0.0,0.0,0.0,0.0,0.0,0.0,0.0,0.0,0.0,0.0,0.0,0.0,0.0,-0.00390625139698,-0.00781250279397,0.00390625139698,0.0,0.0,0.0,0.0,0.0,0.0,0.0,0.0,0.0
1583763067524995725,1070,1583763067477732015,imu,-0.0180664192885,-0.00561523856595,-0.0056762737222,0.999817609787,0.0,0.0,0.0,0.0,0.0,0.0,0.0,0.0,0.0,0.0,0.0,0.0,0.0,0.0,0.0,0.0,0.0,0.0,0.0,0.0,0.0,-0.0390625149012,0.0,0.00390625139698,0.0,0.0,0.0,0.0,0.0,0.0,0.0,0.0,0.0
1583763067615242561,1071,1583763067537732015,imu,-0.018188489601,-0.0055542034097,-0.0056762737222,0.999817609787,0.0,0.0,0.0,0.0,0.0,0.0,0.0,0.0,0.0,0.0,0.0,0.0,0.0,0.0,0.0,0.0,0.0,0.0,0.0,0.0,0.0,-0.0390625149012,0.0,0.00390625139698,0.0,0.0,0.0,0.0,0.0,0.0,0.0,0.0,0.0
1583763067620481075,1072,1583763067577732015,imu,-0.018188489601,-0.0055542034097,-0.0056762737222,0.999817609787,0.0,0.0,0.0,0.0,0.0,0.0,0.0,0.0,0.0,0.0,0.0,0.0,0.0,0.0,0.0,0.0,0.0,0.0,0.0,0.0,0.0,0.00390625139698,0.0,0.00390625139698,0.0,0.0,0.0,0.0,0.0,0.0,0.0,0.0,0.0
1583763067709828333,1073,1583763067637732015,imu,-0.0182495247573,-0.00549316778779,-0.00573730887845,0.999817609787,0.0,0.0,0.0,0.0,0.0,0.0,0.0,0.0,0.0,0.0,0.0,0.0,0.0,0.0,0.0,0.0,0.0,0.0,0.0,0.0,0.0,0.00390625139698,0.0,0.00390625139698,0.0,0.0,0.0,0.0,0.0,0.0,0.0,0.0,0.0
1583763067723124742,1074,1583763067677732015,imu,-0.0182495247573,-0.00549316778779,-0.00573730887845,0.999817609787,0.0,0.0,0.0,0.0,0.0,0.0,0.0,0.0,0.0,0.0,0.0,0.0,0.0,0.0,0.0,0.0,0.0,0.0,0.0,0.0,0.0,-0.00390625139698,0.0312500111759,-0.0351562611759,0.0,0.0,0.0,0.0,0.0,0.0,0.0,0.0,0.0
1583763067809761942,1075,1583763067737732015,imu,-0.018188489601,-0.0055542034097,-0.00573730887845,0.999817609787,0.0,0.0,0.0,0.0,0.0,0.0,0.0,0.0,0.0,0.0,0.0,0.0,0.0,0.0,0.0,0.0,0.0,0.0,0.0,0.0,0.0,-0.00390625139698,0.0312500111759,-0.0351562611759,0.0,0.0,0.0,0.0,0.0,0.0,0.0,0.0,0.0
1583763067835951823,1076,1583763067777732015,imu,-0.018188489601,-0.0055542034097,-0.00573730887845,0.999817609787,0.0,0.0,0.0,0.0,0.0,0.0,0.0,0.0,0.0,0.0,0.0,0.0,0.0,0.0,0.0,0.0,0.0,0.0,0.0,0.0,0.0,-0.00390625139698,-0.00781250279397,-0.0273437593132,0.0,0.0,0.0,0.0,0.0,0.0,0.0,0.0,0.0
1583763067917456174,1077,1583763067836732015,imu,-0.018188489601,-0.00561523856595,-0.0057983440347,0.999817609787,0.0,0.0,0.0,0.0,0.0,0.0,0.0,0.0,0.0,0.0,0.0,0.0,0.0,0.0,0.0,0.0,0.0,0.0,0.0,0.0,0.0,-0.00390625139698,-0.00781250279397,-0.0273437593132,0.0,0.0,0.0,0.0,0.0,0.0,0.0,0.0,0.0
1583763067925722337,1078,1583763067876732015,imu,-0.018188489601,-0.00561523856595,-0.0057983440347,0.999817609787,0.0,0.0,0.0,0.0,0.0,0.0,0.0,0.0,0.0,0.0,0.0,0.0,0.0,0.0,0.0,0.0,0.0,0.0,0.0,0.0,0.0,-0.00390625139698,0.0312500111759,0.0195312574506,0.0,0.0,0.0,0.0,0.0,0.0,0.0,0.0,0.0
1583763068015738005,1079,1583763067937732015,imu,-0.0182495247573,-0.00561523856595,-0.00573730887845,0.999817609787,0.0,0.0,0.0,0.0,0.0,0.0,0.0,0.0,0.0,0.0,0.0,0.0,0.0,0.0,0.0,0.0,0.0,0.0,0.0,0.0,0.0,-0.00390625139698,0.0312500111759,0.0195312574506,0.0,0.0,0.0,0.0,0.0,0.0,0.0,0.0,0.0
1583763068020327842,1080,1583763067976732015,imu,-0.0182495247573,-0.00561523856595,-0.00573730887845,0.999817609787,0.0,0.0,0.0,0.0,0.0,0.0,0.0,0.0,0.0,0.0,0.0,0.0,0.0,0.0,0.0,0.0,0.0,0.0,0.0,0.0,0.0,-0.00390625139698,0.0234375074506,0.0117187537253,0.0,0.0,0.0,0.0,0.0,0.0,0.0,0.0,0.0
1583763068073532112,1081,1583763068037732015,imu,-0.0183105599135,-0.00561523856595,-0.00573730887845,0.999817609787,0.0,0.0,0.0,0.0,0.0,0.0,0.0,0.0,0.0,0.0,0.0,0.0,0.0,0.0,0.0,0.0,0.0,0.0,0.0,0.0,0.0,-0.00390625139698,0.0234375074506,0.0117187537253,0.0,0.0,0.0,0.0,0.0,0.0,0.0,0.0,0.0
1583763068127467733,1082,1583763068077732015,imu,-0.0183105599135,-0.00561523856595,-0.00573730887845,0.999817609787,0.0,0.0,0.0,0.0,0.0,0.0,0.0,0.0,0.0,0.0,0.0,0.0,0.0,0.0,0.0,0.0,0.0,0.0,0.0,0.0,0.0,-0.00390625139698,-0.0156250055879,0.0117187537253,0.0,0.0,0.0,0.0,0.0,0.0,0.0,0.0,0.0
1583763068220561415,1083,1583763068138732015,imu,-0.0183105599135,-0.00561523856595,-0.00573730887845,0.999817609787,0.0,0.0,0.0,0.0,0.0,0.0,0.0,0.0,0.0,0.0,0.0,0.0,0.0,0.0,0.0,0.0,0.0,0.0,0.0,0.0,0.0,-0.00390625139698,-0.0156250055879,0.0117187537253,0.0,0.0,0.0,0.0,0.0,0.0,0.0,0.0,0.0
1583763068229329498,1084,1583763068178732015,imu,-0.0183105599135,-0.00561523856595,-0.00573730887845,0.999817609787,0.0,0.0,0.0,0.0,0.0,0.0,0.0,0.0,0.0,0.0,0.0,0.0,0.0,0.0,0.0,0.0,0.0,0.0,0.0,0.0,0.0,-0.00390625139698,0.0234375074506,-0.0273437593132,0.0,0.0,0.0,0.0,0.0,0.0,0.0,0.0,0.0
1583763068314918785,1085,1583763068237732015,imu,-0.0183105599135,-0.00561523856595,-0.0057983440347,0.999817609787,0.0,0.0,0.0,0.0,0.0,0.0,0.0,0.0,0.0,0.0,0.0,0.0,0.0,0.0,0.0,0.0,0.0,0.0,0.0,0.0,0.0,-0.00390625139698,0.0234375074506,-0.0273437593132,0.0,0.0,0.0,0.0,0.0,0.0,0.0,0.0,0.0
1583763068324123045,1086,1583763068276732015,imu,-0.0183105599135,-0.00561523856595,-0.0057983440347,0.999817609787,0.0,0.0,0.0,0.0,0.0,0.0,0.0,0.0,0.0,0.0,0.0,0.0,0.0,0.0,0.0,0.0,0.0,0.0,0.0,0.0,0.0,-0.00390625139698,-0.0156250055879,-0.0273437593132,0.0,0.0,0.0,0.0,0.0,0.0,0.0,0.0,0.0
1583763068412203044,1087,1583763068337732015,imu,-0.0183105599135,-0.0056762737222,-0.0057983440347,0.999817609787,0.0,0.0,0.0,0.0,0.0,0.0,0.0,0.0,0.0,0.0,0.0,0.0,0.0,0.0,0.0,0.0,0.0,0.0,0.0,0.0,0.0,-0.00390625139698,-0.0156250055879,-0.0273437593132,0.0,0.0,0.0,0.0,0.0,0.0,0.0,0.0,0.0
1583763068432013793,1088,1583763068377732015,imu,-0.0183105599135,-0.0056762737222,-0.0057983440347,0.999817609787,0.0,0.0,0.0,0.0,0.0,0.0,0.0,0.0,0.0,0.0,0.0,0.0,0.0,0.0,0.0,0.0,0.0,0.0,0.0,0.0,0.0,-0.00390625139698,0.0312500111759,0.0195312574506,0.0,0.0,0.0,0.0,0.0,0.0,0.0,0.0,0.0
1583763068516542369,1089,1583763068437732015,imu,-0.0183715950698,-0.0056762737222,-0.00585937919095,0.999817609787,0.0,0.0,0.0,0.0,0.0,0.0,0.0,0.0,0.0,0.0,0.0,0.0,0.0,0.0,0.0,0.0,0.0,0.0,0.0,0.0,0.0,-0.00390625139698,0.0312500111759,0.0195312574506,0.0,0.0,0.0,0.0,0.0,0.0,0.0,0.0,0.0
1583763068546041037,1090,1583763068477732015,imu,-0.0183715950698,-0.0056762737222,-0.00585937919095,0.999817609787,0.0,0.0,0.0,0.0,0.0,0.0,0.0,0.0,0.0,0.0,0.0,0.0,0.0,0.0,0.0,0.0,0.0,0.0,0.0,0.0,0.0,-0.00390625139698,-0.0156250055879,-0.0195312574506,0.0,0.0,0.0,0.0,0.0,0.0,0.0,0.0,0.0
1583763068611064803,1091,1583763068537732015,imu,-0.0183105599135,-0.00573730887845,-0.00585937919095,0.999817609787,0.0,0.0,0.0,0.0,0.0,0.0,0.0,0.0,0.0,0.0,0.0,0.0,0.0,0.0,0.0,0.0,0.0,0.0,0.0,0.0,0.0,-0.00390625139698,-0.0156250055879,-0.0195312574506,0.0,0.0,0.0,0.0,0.0,0.0,0.0,0.0,0.0
1583763068624716307,1092,1583763068577732015,imu,-0.0183105599135,-0.00573730887845,-0.00585937919095,0.999817609787,0.0,0.0,0.0,0.0,0.0,0.0,0.0,0.0,0.0,0.0,0.0,0.0,0.0,0.0,0.0,0.0,0.0,0.0,0.0,0.0,0.0,-0.00390625139698,0.0234375074506,0.0195312574506,0.0,0.0,0.0,0.0,0.0,0.0,0.0,0.0,0.0
1583763068721509932,1093,1583763068637732015,imu,-0.0183105599135,-0.00573730887845,-0.0057983440347,0.999817609787,0.0,0.0,0.0,0.0,0.0,0.0,0.0,0.0,0.0,0.0,0.0,0.0,0.0,0.0,0.0,0.0,0.0,0.0,0.0,0.0,0.0,-0.00390625139698,0.0234375074506,0.0195312574506,0.0,0.0,0.0,0.0,0.0,0.0,0.0,0.0,0.0
1583763068737059538,1094,1583763068677732015,imu,-0.0183105599135,-0.00573730887845,-0.0057983440347,0.999817609787,0.0,0.0,0.0,0.0,0.0,0.0,0.0,0.0,0.0,0.0,0.0,0.0,0.0,0.0,0.0,0.0,0.0,0.0,0.0,0.0,0.0,-0.00390625139698,0.0234375074506,0.0117187537253,0.0,0.0,0.0,0.0,0.0,0.0,0.0,0.0,0.0
1583763068783486903,1095,1583763068737732015,imu,-0.018188489601,-0.00573730887845,-0.0057983440347,0.999817609787,0.0,0.0,0.0,0.0,0.0,0.0,0.0,0.0,0.0,0.0,0.0,0.0,0.0,0.0,0.0,0.0,0.0,0.0,0.0,0.0,0.0,-0.00390625139698,0.0234375074506,0.0117187537253,0.0,0.0,0.0,0.0,0.0,0.0,0.0,0.0,0.0
1583763068820789479,1096,1583763068777732015,imu,-0.018188489601,-0.00573730887845,-0.0057983440347,0.999817609787,0.0,0.0,0.0,0.0,0.0,0.0,0.0,0.0,0.0,0.0,0.0,0.0,0.0,0.0,0.0,0.0,0.0,0.0,0.0,0.0,0.0,-0.00390625139698,0.0234375074506,-0.0273437593132,0.0,0.0,0.0,0.0,0.0,0.0,0.0,0.0,0.0
1583763068909641273,1097,1583763068837732015,imu,-0.018188489601,-0.00573730887845,-0.0057983440347,0.999817609787,0.0,0.0,0.0,0.0,0.0,0.0,0.0,0.0,0.0,0.0,0.0,0.0,0.0,0.0,0.0,0.0,0.0,0.0,0.0,0.0,0.0,-0.00390625139698,0.0234375074506,-0.0273437593132,0.0,0.0,0.0,0.0,0.0,0.0,0.0,0.0,0.0
1583763068936706257,1098,1583763068877732015,imu,-0.018188489601,-0.00573730887845,-0.0057983440347,0.999817609787,0.0,0.0,0.0,0.0,0.0,0.0,0.0,0.0,0.0,0.0,0.0,0.0,0.0,0.0,0.0,0.0,0.0,0.0,0.0,0.0,0.0,-0.00390625139698,0.0156250055879,0.0117187537253,0.0,0.0,0.0,0.0,0.0,0.0,0.0,0.0,0.0
1583763069014301562,1099,1583763068937732015,imu,-0.0181274544448,-0.00573730887845,-0.0057983440347,0.999817609787,0.0,0.0,0.0,0.0,0.0,0.0,0.0,0.0,0.0,0.0,0.0,0.0,0.0,0.0,0.0,0.0,0.0,0.0,0.0,0.0,0.0,-0.00390625139698,0.0156250055879,0.0117187537253,0.0,0.0,0.0,0.0,0.0,0.0,0.0,0.0,0.0
1583763069036291730,1100,1583763068977732015,imu,-0.0181274544448,-0.00573730887845,-0.0057983440347,0.999817609787,0.0,0.0,0.0,0.0,0.0,0.0,0.0,0.0,0.0,0.0,0.0,0.0,0.0,0.0,0.0,0.0,0.0,0.0,0.0,0.0,0.0,-0.00390625139698,-0.0234375074506,-0.0273437593132,0.0,0.0,0.0,0.0,0.0,0.0,0.0,0.0,0.0
1583763069098930736,1101,1583763069036732015,imu,-0.0181274544448,-0.00573730887845,-0.0057983440347,0.999817609787,0.0,0.0,0.0,0.0,0.0,0.0,0.0,0.0,0.0,0.0,0.0,0.0,0.0,0.0,0.0,0.0,0.0,0.0,0.0,0.0,0.0,-0.00390625139698,-0.0234375074506,-0.0273437593132,0.0,0.0,0.0,0.0,0.0,0.0,0.0,0.0,0.0
1583763069130620045,1102,1583763069076732015,imu,-0.0181274544448,-0.00573730887845,-0.0057983440347,0.999817609787,0.0,0.0,0.0,0.0,0.0,0.0,0.0,0.0,0.0,0.0,0.0,0.0,0.0,0.0,0.0,0.0,0.0,0.0,0.0,0.0,0.0,-0.00390625139698,-0.0234375074506,0.0195312574506,0.0,0.0,0.0,0.0,0.0,0.0,0.0,0.0,0.0
1583763069214564197,1103,1583763069137732015,imu,-0.0181274544448,-0.0056762737222,-0.0057983440347,0.999817609787,0.0,0.0,0.0,0.0,0.0,0.0,0.0,0.0,0.0,0.0,0.0,0.0,0.0,0.0,0.0,0.0,0.0,0.0,0.0,0.0,0.0,-0.00390625139698,-0.0234375074506,0.0195312574506,0.0,0.0,0.0,0.0,0.0,0.0,0.0,0.0,0.0
1583763069236570775,1104,1583763069177732015,imu,-0.0181274544448,-0.0056762737222,-0.0057983440347,0.999817609787,0.0,0.0,0.0,0.0,0.0,0.0,0.0,0.0,0.0,0.0,0.0,0.0,0.0,0.0,0.0,0.0,0.0,0.0,0.0,0.0,0.0,-0.00390625139698,-0.0234375074506,0.0117187537253,0.0,0.0,0.0,0.0,0.0,0.0,0.0,0.0,0.0
1583763069293310649,1105,1583763069237732015,imu,-0.0181274544448,-0.00573730887845,-0.0057983440347,0.999817609787,0.0,0.0,0.0,0.0,0.0,0.0,0.0,0.0,0.0,0.0,0.0,0.0,0.0,0.0,0.0,0.0,0.0,0.0,0.0,0.0,0.0,-0.00390625139698,-0.0234375074506,0.0117187537253,0.0,0.0,0.0,0.0,0.0,0.0,0.0,0.0,0.0
1583763069331657332,1106,1583763069276732015,imu,-0.0181274544448,-0.00573730887845,-0.0057983440347,0.999817609787,0.0,0.0,0.0,0.0,0.0,0.0,0.0,0.0,0.0,0.0,0.0,0.0,0.0,0.0,0.0,0.0,0.0,0.0,0.0,0.0,0.0,-0.00390625139698,0.0156250055879,-0.0273437593132,0.0,0.0,0.0,0.0,0.0,0.0,0.0,0.0,0.0
1583763069413913367,1107,1583763069337732015,imu,-0.0180664192885,-0.0057983440347,-0.00585937919095,0.999817609787,0.0,0.0,0.0,0.0,0.0,0.0,0.0,0.0,0.0,0.0,0.0,0.0,0.0,0.0,0.0,0.0,0.0,0.0,0.0,0.0,0.0,-0.00390625139698,0.0156250055879,-0.0273437593132,0.0,0.0,0.0,0.0,0.0,0.0,0.0,0.0,0.0
1583763069450116984,1108,1583763069377732015,imu,-0.0180664192885,-0.0057983440347,-0.00585937919095,0.999817609787,0.0,0.0,0.0,0.0,0.0,0.0,0.0,0.0,0.0,0.0,0.0,0.0,0.0,0.0,0.0,0.0,0.0,0.0,0.0,0.0,0.0,-0.0117187537253,0.0156250055879,0.0117187537253,0.0,0.0,0.0,0.0,0.0,0.0,0.0,0.0,0.0
1583763069515212345,1109,1583763069437732015,imu,-0.0180664192885,-0.0057983440347,-0.00585937919095,0.999817609787,0.0,0.0,0.0,0.0,0.0,0.0,0.0,0.0,0.0,0.0,0.0,0.0,0.0,0.0,0.0,0.0,0.0,0.0,0.0,0.0,0.0,-0.0117187537253,0.0156250055879,0.0117187537253,0.0,0.0,0.0,0.0,0.0,0.0,0.0,0.0,0.0
1583763069522557583,1110,1583763069477732015,imu,-0.0180664192885,-0.0057983440347,-0.00585937919095,0.999817609787,0.0,0.0,0.0,0.0,0.0,0.0,0.0,0.0,0.0,0.0,0.0,0.0,0.0,0.0,0.0,0.0,0.0,0.0,0.0,0.0,0.0,-0.00390625139698,0.0156250055879,0.0117187537253,0.0,0.0,0.0,0.0,0.0,0.0,0.0,0.0,0.0
1583763069613316502,1111,1583763069537732015,imu,-0.0180053841323,-0.00573730887845,-0.00585937919095,0.999817609787,0.0,0.0,0.0,0.0,0.0,0.0,0.0,0.0,0.0,0.0,0.0,0.0,0.0,0.0,0.0,0.0,0.0,0.0,0.0,0.0,0.0,-0.00390625139698,0.0156250055879,0.0117187537253,0.0,0.0,0.0,0.0,0.0,0.0,0.0,0.0,0.0
1583763069629649205,1112,1583763069582429082,imu,-0.0180053841323,-0.00573730887845,-0.00585937919095,0.999817609787,0.0,0.0,0.0,0.0,0.0,0.0,0.0,0.0,0.0,0.0,0.0,0.0,0.0,0.0,0.0,0.0,0.0,0.0,0.0,0.0,0.0,-0.00390625139698,0.0156250055879,0.0117187537253,0.0,0.0,0.0,0.0,0.0,0.0,0.0,0.0,0.0
1583763069714113997,1113,1583763069641429082,imu,-0.017944348976,-0.00573730887845,-0.0057983440347,0.999817609787,0.0,0.0,0.0,0.0,0.0,0.0,0.0,0.0,0.0,0.0,0.0,0.0,0.0,0.0,0.0,0.0,0.0,0.0,0.0,0.0,0.0,-0.00390625139698,0.0156250055879,0.0117187537253,0.0,0.0,0.0,0.0,0.0,0.0,0.0,0.0,0.0
1583763069745134385,1114,1583763069681429082,imu,-0.017944348976,-0.00573730887845,-0.0057983440347,0.999817609787,0.0,0.0,0.0,0.0,0.0,0.0,0.0,0.0,0.0,0.0,0.0,0.0,0.0,0.0,0.0,0.0,0.0,0.0,0.0,0.0,0.0,-0.00390625139698,0.0156250055879,0.00390625139698,0.0,0.0,0.0,0.0,0.0,0.0,0.0,0.0,0.0
1583763069777442950,1115,1583763069742429082,imu,-0.017944348976,-0.0056762737222,-0.00585937919095,0.999817609787,0.0,0.0,0.0,0.0,0.0,0.0,0.0,0.0,0.0,0.0,0.0,0.0,0.0,0.0,0.0,0.0,0.0,0.0,0.0,0.0,0.0,-0.00390625139698,0.0156250055879,0.00390625139698,0.0,0.0,0.0,0.0,0.0,0.0,0.0,0.0,0.0
1583763069827662927,1116,1583763069782429082,imu,-0.017944348976,-0.0056762737222,-0.00585937919095,0.999817609787,0.0,0.0,0.0,0.0,0.0,0.0,0.0,0.0,0.0,0.0,0.0,0.0,0.0,0.0,0.0,0.0,0.0,0.0,0.0,0.0,0.0,-0.00390625139698,-0.0234375074506,0.00390625139698,0.0,0.0,0.0,0.0,0.0,0.0,0.0,0.0,0.0
1583763069909831359,1117,1583763069842429082,imu,-0.0180053841323,-0.00573730887845,-0.00585937919095,0.999817609787,0.0,0.0,0.0,0.0,0.0,0.0,0.0,0.0,0.0,0.0,0.0,0.0,0.0,0.0,0.0,0.0,0.0,0.0,0.0,0.0,0.0,-0.00390625139698,-0.0234375074506,0.00390625139698,0.0,0.0,0.0,0.0,0.0,0.0,0.0,0.0,0.0
1583763069934266834,1118,1583763069882429082,imu,-0.0180053841323,-0.00573730887845,-0.00585937919095,0.999817609787,0.0,0.0,0.0,0.0,0.0,0.0,0.0,0.0,0.0,0.0,0.0,0.0,0.0,0.0,0.0,0.0,0.0,0.0,0.0,0.0,0.0,-0.00390625139698,0.0234375074506,0.00390625139698,0.0,0.0,0.0,0.0,0.0,0.0,0.0,0.0,0.0
1583763069992282741,1119,1583763069941429082,imu,-0.0180053841323,-0.0056762737222,-0.0057983440347,0.999817609787,0.0,0.0,0.0,0.0,0.0,0.0,0.0,0.0,0.0,0.0,0.0,0.0,0.0,0.0,0.0,0.0,0.0,0.0,0.0,0.0,0.0,-0.00390625139698,0.0234375074506,0.00390625139698,0.0,0.0,0.0,0.0,0.0,0.0,0.0,0.0,0.0
1583763070031577362,1120,1583763069981429082,imu,-0.0180053841323,-0.0056762737222,-0.0057983440347,0.999817609787,0.0,0.0,0.0,0.0,0.0,0.0,0.0,0.0,0.0,0.0,0.0,0.0,0.0,0.0,0.0,0.0,0.0,0.0,0.0,0.0,0.0,-0.00390625139698,-0.0156250055879,-0.0273437593132,0.0,0.0,0.0,0.0,0.0,0.0,0.0,0.0,0.0
1583763070109317535,1121,1583763070042429082,imu,-0.017944348976,-0.0056762737222,-0.0057983440347,0.999817609787,0.0,0.0,0.0,0.0,0.0,0.0,0.0,0.0,0.0,0.0,0.0,0.0,0.0,0.0,0.0,0.0,0.0,0.0,0.0,0.0,0.0,-0.00390625139698,-0.0156250055879,-0.0273437593132,0.0,0.0,0.0,0.0,0.0,0.0,0.0,0.0,0.0
1583763070142063795,1122,1583763070082429082,imu,-0.017944348976,-0.0056762737222,-0.0057983440347,0.999817609787,0.0,0.0,0.0,0.0,0.0,0.0,0.0,0.0,0.0,0.0,0.0,0.0,0.0,0.0,0.0,0.0,0.0,0.0,0.0,0.0,0.0,-0.00390625139698,0.00781250279397,0.0117187537253,0.0,0.0,0.0,0.0,0.0,0.0,0.0,0.0,0.0
1583763070209602520,1123,1583763070142429082,imu,-0.017944348976,-0.0056762737222,-0.0057983440347,0.999817609787,0.0,0.0,0.0,0.0,0.0,0.0,0.0,0.0,0.0,0.0,0.0,0.0,0.0,0.0,0.0,0.0,0.0,0.0,0.0,0.0,0.0,-0.00390625139698,0.00781250279397,0.0117187537253,0.0,0.0,0.0,0.0,0.0,0.0,0.0,0.0,0.0
1583763070237018834,1124,1583763070182429082,imu,-0.017944348976,-0.0056762737222,-0.0057983440347,0.999817609787,0.0,0.0,0.0,0.0,0.0,0.0,0.0,0.0,0.0,0.0,0.0,0.0,0.0,0.0,0.0,0.0,0.0,0.0,0.0,0.0,0.0,-0.00390625139698,0.0156250055879,0.0117187537253,0.0,0.0,0.0,0.0,0.0,0.0,0.0,0.0,0.0
1583763070315511178,1125,1583763070241429082,imu,-0.017944348976,-0.0056762737222,-0.0057983440347,0.999817609787,0.0,0.0,0.0,0.0,0.0,0.0,0.0,0.0,0.0,0.0,0.0,0.0,0.0,0.0,0.0,0.0,0.0,0.0,0.0,0.0,0.0,-0.00390625139698,0.0156250055879,0.0117187537253,0.0,0.0,0.0,0.0,0.0,0.0,0.0,0.0,0.0
1583763070329476270,1126,1583763070281429082,imu,-0.017944348976,-0.0056762737222,-0.0057983440347,0.999817609787,0.0,0.0,0.0,0.0,0.0,0.0,0.0,0.0,0.0,0.0,0.0,0.0,0.0,0.0,0.0,0.0,0.0,0.0,0.0,0.0,0.0,-0.00390625139698,-0.0234375074506,-0.0273437593132,0.0,0.0,0.0,0.0,0.0,0.0,0.0,0.0,0.0
1583763070409529036,1127,1583763070342429082,imu,-0.017944348976,-0.0056762737222,-0.0057983440347,0.999817609787,0.0,0.0,0.0,0.0,0.0,0.0,0.0,0.0,0.0,0.0,0.0,0.0,0.0,0.0,0.0,0.0,0.0,0.0,0.0,0.0,0.0,-0.00390625139698,-0.0234375074506,-0.0273437593132,0.0,0.0,0.0,0.0,0.0,0.0,0.0,0.0,0.0
1583763070437851110,1128,1583763070382429082,imu,-0.017944348976,-0.0056762737222,-0.0057983440347,0.999817609787,0.0,0.0,0.0,0.0,0.0,0.0,0.0,0.0,0.0,0.0,0.0,0.0,0.0,0.0,0.0,0.0,0.0,0.0,0.0,0.0,0.0,-0.00390625139698,0.0156250055879,0.0117187537253,0.0,0.0,0.0,0.0,0.0,0.0,0.0,0.0,0.0
1583763070478063428,1129,1583763070441429082,imu,-0.017944348976,-0.0056762737222,-0.0057983440347,0.999817609787,0.0,0.0,0.0,0.0,0.0,0.0,0.0,0.0,0.0,0.0,0.0,0.0,0.0,0.0,0.0,0.0,0.0,0.0,0.0,0.0,0.0,-0.00390625139698,0.0156250055879,0.0117187537253,0.0,0.0,0.0,0.0,0.0,0.0,0.0,0.0,0.0
1583763070529060279,1130,1583763070481429082,imu,-0.017944348976,-0.0056762737222,-0.0057983440347,0.999817609787,0.0,0.0,0.0,0.0,0.0,0.0,0.0,0.0,0.0,0.0,0.0,0.0,0.0,0.0,0.0,0.0,0.0,0.0,0.0,0.0,0.0,-0.00390625139698,-0.0234375074506,0.0117187537253,0.0,0.0,0.0,0.0,0.0,0.0,0.0,0.0,0.0
1583763070616025385,1131,1583763070542429082,imu,-0.017944348976,-0.0056762737222,-0.0057983440347,0.999817609787,0.0,0.0,0.0,0.0,0.0,0.0,0.0,0.0,0.0,0.0,0.0,0.0,0.0,0.0,0.0,0.0,0.0,0.0,0.0,0.0,0.0,-0.00390625139698,-0.0234375074506,0.0117187537253,0.0,0.0,0.0,0.0,0.0,0.0,0.0,0.0,0.0
1583763070644241517,1132,1583763070582429082,imu,-0.017944348976,-0.0056762737222,-0.0057983440347,0.999817609787,0.0,0.0,0.0,0.0,0.0,0.0,0.0,0.0,0.0,0.0,0.0,0.0,0.0,0.0,0.0,0.0,0.0,0.0,0.0,0.0,0.0,-0.00390625139698,0.0234375074506,0.0117187537253,0.0,0.0,0.0,0.0,0.0,0.0,0.0,0.0,0.0
1583763070679171131,1133,1583763070642429082,imu,-0.017944348976,-0.00561523856595,-0.0057983440347,0.999817609787,0.0,0.0,0.0,0.0,0.0,0.0,0.0,0.0,0.0,0.0,0.0,0.0,0.0,0.0,0.0,0.0,0.0,0.0,0.0,0.0,0.0,-0.00390625139698,0.0234375074506,0.0117187537253,0.0,0.0,0.0,0.0,0.0,0.0,0.0,0.0,0.0
1583763070735331816,1134,1583763070682429082,imu,-0.017944348976,-0.00561523856595,-0.0057983440347,0.999817609787,0.0,0.0,0.0,0.0,0.0,0.0,0.0,0.0,0.0,0.0,0.0,0.0,0.0,0.0,0.0,0.0,0.0,0.0,0.0,0.0,0.0,-0.00390625139698,0.0156250055879,0.00390625139698,0.0,0.0,0.0,0.0,0.0,0.0,0.0,0.0,0.0
1583763070815164686,1135,1583763070741429082,imu,-0.0178833138198,-0.00561523856595,-0.00585937919095,0.999817609787,0.0,0.0,0.0,0.0,0.0,0.0,0.0,0.0,0.0,0.0,0.0,0.0,0.0,0.0,0.0,0.0,0.0,0.0,0.0,0.0,0.0,-0.00390625139698,0.0156250055879,0.00390625139698,0.0,0.0,0.0,0.0,0.0,0.0,0.0,0.0,0.0
1583763070830680470,1136,1583763070781429082,imu,-0.0178833138198,-0.00561523856595,-0.00585937919095,0.999817609787,0.0,0.0,0.0,0.0,0.0,0.0,0.0,0.0,0.0,0.0,0.0,0.0,0.0,0.0,0.0,0.0,0.0,0.0,0.0,0.0,0.0,-0.00390625139698,-0.0234375074506,0.00390625139698,0.0,0.0,0.0,0.0,0.0,0.0,0.0,0.0,0.0
1583763070901784447,1137,1583763070842429082,imu,-0.0178833138198,-0.00561523856595,-0.00585937919095,0.999817609787,0.0,0.0,0.0,0.0,0.0,0.0,0.0,0.0,0.0,0.0,0.0,0.0,0.0,0.0,0.0,0.0,0.0,0.0,0.0,0.0,0.0,-0.00390625139698,-0.0234375074506,0.00390625139698,0.0,0.0,0.0,0.0,0.0,0.0,0.0,0.0,0.0
1583763070935947872,1138,1583763070882429082,imu,-0.0178833138198,-0.00561523856595,-0.00585937919095,0.999817609787,0.0,0.0,0.0,0.0,0.0,0.0,0.0,0.0,0.0,0.0,0.0,0.0,0.0,0.0,0.0,0.0,0.0,0.0,0.0,0.0,0.0,-0.00390625139698,0.0156250055879,0.00390625139698,0.0,0.0,0.0,0.0,0.0,0.0,0.0,0.0,0.0
1583763071015734146,1139,1583763070942429082,imu,-0.0178222786635,-0.00561523856595,-0.0057983440347,0.999817609787,0.0,0.0,0.0,0.0,0.0,0.0,0.0,0.0,0.0,0.0,0.0,0.0,0.0,0.0,0.0,0.0,0.0,0.0,0.0,0.0,0.0,-0.00390625139698,0.0156250055879,0.00390625139698,0.0,0.0,0.0,0.0,0.0,0.0,0.0,0.0,0.0
1583763071033558956,1140,1583763070982429082,imu,-0.0178222786635,-0.00561523856595,-0.0057983440347,0.999817609787,0.0,0.0,0.0,0.0,0.0,0.0,0.0,0.0,0.0,0.0,0.0,0.0,0.0,0.0,0.0,0.0,0.0,0.0,0.0,0.0,0.0,-0.00390625139698,0.00781250279397,0.00390625139698,0.0,0.0,0.0,0.0,0.0,0.0,0.0,0.0,0.0
1583763071109710890,1141,1583763071042429082,imu,-0.017700208351,-0.0057983440347,-0.00347900646739,0.999817609787,0.0,0.0,0.0,0.0,0.0,0.0,0.0,0.0,0.0,0.0,0.0,0.0,0.0,0.0,0.0,0.0,0.0,0.0,0.0,0.0,0.0,-0.00390625139698,0.00781250279397,0.00390625139698,0.0,0.0,0.0,0.0,0.0,0.0,0.0,0.0,0.0
1583763071129830588,1142,1583763071081429082,imu,-0.017700208351,-0.0057983440347,-0.00347900646739,0.999817609787,0.0,0.0,0.0,0.0,0.0,0.0,0.0,0.0,0.0,0.0,0.0,0.0,0.0,0.0,0.0,0.0,0.0,0.0,0.0,0.0,0.0,0.289062589407,-0.109375037253,-0.0351562611759,0.0,0.0,0.0,0.0,0.0,0.0,0.0,0.0,0.0
1583763071215769076,1143,1583763071143429082,imu,-0.0175171028823,-0.0061645549722,0.00506592169404,0.999817609787,0.0,0.0,0.0,0.0,0.0,0.0,0.0,0.0,0.0,0.0,0.0,0.0,0.0,0.0,0.0,0.0,0.0,0.0,0.0,0.0,0.0,0.289062589407,-0.109375037253,-0.0351562611759,0.0,0.0,0.0,0.0,0.0,0.0,0.0,0.0,0.0
1583763071222907189,1144,1583763071181429082,imu,-0.0175171028823,-0.0061645549722,0.00506592169404,0.999817609787,0.0,0.0,0.0,0.0,0.0,0.0,0.0,0.0,0.0,0.0,0.0,0.0,0.0,0.0,0.0,0.0,0.0,0.0,0.0,0.0,0.0,-0.0585937723517,-0.0625000223517,-0.0273437593132,0.0,0.0,0.0,0.0,0.0,0.0,0.0,0.0,0.0
1583763071299259213,1145,1583763071242429082,imu,-0.0175781380385,-0.00665283668786,0.0147094829008,0.999695539474,0.0,0.0,0.0,0.0,0.0,0.0,0.0,0.0,0.0,0.0,0.0,0.0,0.0,0.0,0.0,0.0,0.0,0.0,0.0,0.0,0.0,-0.0585937723517,-0.0625000223517,-0.0273437593132,0.0,0.0,0.0,0.0,0.0,0.0,0.0,0.0,0.0
1583763071335850031,1146,1583763071282429082,imu,-0.0175781380385,-0.00665283668786,0.0147094829008,0.999695539474,0.0,0.0,0.0,0.0,0.0,0.0,0.0,0.0,0.0,0.0,0.0,0.0,0.0,0.0,0.0,0.0,0.0,0.0,0.0,0.0,0.0,-0.105468787253,0.0703125223517,0.0195312574506,0.0,0.0,0.0,0.0,0.0,0.0,0.0,0.0,0.0
1583763071415529118,1147,1583763071342429082,imu,-0.0176391731948,-0.00720215355977,0.0247192550451,0.999512434006,0.0,0.0,0.0,0.0,0.0,0.0,0.0,0.0,0.0,0.0,0.0,0.0,0.0,0.0,0.0,0.0,0.0,0.0,0.0,0.0,0.0,-0.105468787253,0.0703125223517,0.0195312574506,0.0,0.0,0.0,0.0,0.0,0.0,0.0,0.0,0.0
1583763071426433223,1148,1583763071382429082,imu,-0.0176391731948,-0.00720215355977,0.0247192550451,0.999512434006,0.0,0.0,0.0,0.0,0.0,0.0,0.0,0.0,0.0,0.0,0.0,0.0,0.0,0.0,0.0,0.0,0.0,0.0,0.0,0.0,0.0,-0.0820312798023,-0.0156250055879,-0.0195312574506,0.0,0.0,0.0,0.0,0.0,0.0,0.0,0.0,0.0
1583763071500424394,1149,1583763071442429082,imu,-0.0176391731948,-0.00762940011919,0.035644557327,0.999207258224,0.0,0.0,0.0,0.0,0.0,0.0,0.0,0.0,0.0,0.0,0.0,0.0,0.0,0.0,0.0,0.0,0.0,0.0,0.0,0.0,0.0,-0.0820312798023,-0.0156250055879,-0.0195312574506,0.0,0.0,0.0,0.0,0.0,0.0,0.0,0.0,0.0
1583763071530652622,1150,1583763071481429082,imu,-0.0176391731948,-0.00762940011919,0.035644557327,0.999207258224,0.0,0.0,0.0,0.0,0.0,0.0,0.0,0.0,0.0,0.0,0.0,0.0,0.0,0.0,0.0,0.0,0.0,0.0,0.0,0.0,0.0,-0.0664062723517,-0.0156250055879,0.0585937723517,0.0,0.0,0.0,0.0,0.0,0.0,0.0,0.0,0.0
1583763071614714880,1151,1583763071542429082,imu,-0.0175781380385,-0.00799561105669,0.0470581389964,0.998718976974,0.0,0.0,0.0,0.0,0.0,0.0,0.0,0.0,0.0,0.0,0.0,0.0,0.0,0.0,0.0,0.0,0.0,0.0,0.0,0.0,0.0,-0.0664062723517,-0.0156250055879,0.0585937723517,0.0,0.0,0.0,0.0,0.0,0.0,0.0,0.0,0.0
1583763071624403912,1152,1583763071582429082,imu,-0.0175781380385,-0.00799561105669,0.0470581389964,0.998718976974,0.0,0.0,0.0,0.0,0.0,0.0,0.0,0.0,0.0,0.0,0.0,0.0,0.0,0.0,0.0,0.0,0.0,0.0,0.0,0.0,0.0,-0.0273437593132,-0.0234375074506,0.0195312574506,0.0,0.0,0.0,0.0,0.0,0.0,0.0,0.0,0.0
1583763071699426616,1153,1583763071641429082,imu,-0.0175171028823,-0.00842285715044,0.0579834394157,0.998108625412,0.0,0.0,0.0,0.0,0.0,0.0,0.0,0.0,0.0,0.0,0.0,0.0,0.0,0.0,0.0,0.0,0.0,0.0,0.0,0.0,0.0,-0.0273437593132,-0.0234375074506,0.0195312574506,0.0,0.0,0.0,0.0,0.0,0.0,0.0,0.0,0.0
1583763071730959337,1154,1583763071681429082,imu,-0.0175171028823,-0.00842285715044,0.0579834394157,0.998108625412,0.0,0.0,0.0,0.0,0.0,0.0,0.0,0.0,0.0,0.0,0.0,0.0,0.0,0.0,0.0,0.0,0.0,0.0,0.0,0.0,0.0,-0.148437559605,0.0976562872529,0.0195312574506,0.0,0.0,0.0,0.0,0.0,0.0,0.0,0.0,0.0
1583763071816722571,1155,1583763071742429082,imu,-0.017456067726,-0.00860596355051,0.0678101107478,0.997498273849,0.0,0.0,0.0,0.0,0.0,0.0,0.0,0.0,0.0,0.0,0.0,0.0,0.0,0.0,0.0,0.0,0.0,0.0,0.0,0.0,0.0,-0.148437559605,0.0976562872529,0.0195312574506,0.0,0.0,0.0,0.0,0.0,0.0,0.0,0.0,0.0
1583763071828778628,1156,1583763071782429082,imu,-0.017456067726,-0.00860596355051,0.0678101107478,0.997498273849,0.0,0.0,0.0,0.0,0.0,0.0,0.0,0.0,0.0,0.0,0.0,0.0,0.0,0.0,0.0,0.0,0.0,0.0,0.0,0.0,0.0,-0.0625000223517,0.00781250279397,-0.0351562611759,0.0,0.0,0.0,0.0,0.0,0.0,0.0,0.0,0.0
1583763071909339961,1157,1583763071841429082,imu,-0.0172729622573,-0.00836182199419,0.0777588412166,0.996765851974,0.0,0.0,0.0,0.0,0.0,0.0,0.0,0.0,0.0,0.0,0.0,0.0,0.0,0.0,0.0,0.0,0.0,0.0,0.0,0.0,0.0,-0.0625000223517,0.00781250279397,-0.0351562611759,0.0,0.0,0.0,0.0,0.0,0.0,0.0,0.0,0.0
1583763071937815717,1158,1583763071881429082,imu,-0.0172729622573,-0.00836182199419,0.0777588412166,0.996765851974,0.0,0.0,0.0,0.0,0.0,0.0,0.0,0.0,0.0,0.0,0.0,0.0,0.0,0.0,0.0,0.0,0.0,0.0,0.0,0.0,0.0,-0.00390625139698,-0.0703125223517,0.0117187537253,0.0,0.0,0.0,0.0,0.0,0.0,0.0,0.0,0.0
1583763072015293548,1159,1583763071941429082,imu,-0.0170288216323,-0.00817871652544,0.0888672545552,0.995850324631,0.0,0.0,0.0,0.0,0.0,0.0,0.0,0.0,0.0,0.0,0.0,0.0,0.0,0.0,0.0,0.0,0.0,0.0,0.0,0.0,0.0,-0.00390625139698,-0.0703125223517,0.0117187537253,0.0,0.0,0.0,0.0,0.0,0.0,0.0,0.0,0.0
1583763072025712183,1160,1583763071981429082,imu,-0.0170288216323,-0.00817871652544,0.0888672545552,0.995850324631,0.0,0.0,0.0,0.0,0.0,0.0,0.0,0.0,0.0,0.0,0.0,0.0,0.0,0.0,0.0,0.0,0.0,0.0,0.0,0.0,0.0,-0.0781250298023,0.0898437798023,0.0507812686265,0.0,0.0,0.0,0.0,0.0,0.0,0.0,0.0,0.0
1583763072104083754,1161,1583763072042429082,imu,-0.0168457143009,-0.00811768136919,0.0994873791933,0.994873762131,0.0,0.0,0.0,0.0,0.0,0.0,0.0,0.0,0.0,0.0,0.0,0.0,0.0,0.0,0.0,0.0,0.0,0.0,0.0,0.0,0.0,-0.0781250298023,0.0898437798023,0.0507812686265,0.0,0.0,0.0,0.0,0.0,0.0,0.0,0.0,0.0
1583763072131516062,1162,1583763072084429082,imu,-0.0168457143009,-0.00811768136919,0.0994873791933,0.994873762131,0.0,0.0,0.0,0.0,0.0,0.0,0.0,0.0,0.0,0.0,0.0,0.0,0.0,0.0,0.0,0.0,0.0,0.0,0.0,0.0,0.0,-0.00390625139698,0.00781250279397,-0.0273437593132,0.0,0.0,0.0,0.0,0.0,0.0,0.0,0.0,0.0
1583763072214132272,1163,1583763072147635993,imu,-0.0169067494571,-0.00781250558794,0.110351644456,0.993714094162,0.0,0.0,0.0,0.0,0.0,0.0,0.0,0.0,0.0,0.0,0.0,0.0,0.0,0.0,0.0,0.0,0.0,0.0,0.0,0.0,0.0,-0.00390625139698,0.00781250279397,-0.0273437593132,0.0,0.0,0.0,0.0,0.0,0.0,0.0,0.0,0.0
1583763072237560911,1164,1583763072187635993,imu,-0.0169067494571,-0.00781250558794,0.110351644456,0.993714094162,0.0,0.0,0.0,0.0,0.0,0.0,0.0,0.0,0.0,0.0,0.0,0.0,0.0,0.0,0.0,0.0,0.0,0.0,0.0,0.0,0.0,0.00390625139698,0.0820312798023,0.0117187537253,0.0,0.0,0.0,0.0,0.0,0.0,0.0,0.0,0.0
1583763072307966425,1165,1583763072247635993,imu,-0.0167846791446,-0.00781250558794,0.120849698782,0.992493391037,0.0,0.0,0.0,0.0,0.0,0.0,0.0,0.0,0.0,0.0,0.0,0.0,0.0,0.0,0.0,0.0,0.0,0.0,0.0,0.0,0.0,0.00390625139698,0.0820312798023,0.0117187537253,0.0,0.0,0.0,0.0,0.0,0.0,0.0,0.0,0.0
1583763072331569505,1166,1583763072287635993,imu,-0.0167846791446,-0.00781250558794,0.120849698782,0.992493391037,0.0,0.0,0.0,0.0,0.0,0.0,0.0,0.0,0.0,0.0,0.0,0.0,0.0,0.0,0.0,0.0,0.0,0.0,0.0,0.0,0.0,-0.0703125223517,-0.0312500111759,-0.0273437593132,0.0,0.0,0.0,0.0,0.0,0.0,0.0,0.0,0.0
1583763072417071398,1167,1583763072348635993,imu,-0.0166626088321,-0.00781250558794,0.131530851126,0.991150617599,0.0,0.0,0.0,0.0,0.0,0.0,0.0,0.0,0.0,0.0,0.0,0.0,0.0,0.0,0.0,0.0,0.0,0.0,0.0,0.0,0.0,-0.0703125223517,-0.0312500111759,-0.0273437593132,0.0,0.0,0.0,0.0,0.0,0.0,0.0,0.0,0.0
1583763072437644730,1168,1583763072387635993,imu,-0.0166626088321,-0.00781250558794,0.131530851126,0.991150617599,0.0,0.0,0.0,0.0,0.0,0.0,0.0,0.0,0.0,0.0,0.0,0.0,0.0,0.0,0.0,0.0,0.0,0.0,0.0,0.0,0.0,-0.0312500111759,0.0,-0.0195312574506,0.0,0.0,0.0,0.0,0.0,0.0,0.0,0.0,0.0
1583763072480275931,1169,1583763072448635993,imu,-0.0164795033634,-0.00787354074419,0.142273053527,0.989685773849,0.0,0.0,0.0,0.0,0.0,0.0,0.0,0.0,0.0,0.0,0.0,0.0,0.0,0.0,0.0,0.0,0.0,0.0,0.0,0.0,0.0,-0.0312500111759,0.0,-0.0195312574506,0.0,0.0,0.0,0.0,0.0,0.0,0.0,0.0,0.0
1583763072532205207,1170,1583763072488635993,imu,-0.0164795033634,-0.00787354074419,0.142273053527,0.989685773849,0.0,0.0,0.0,0.0,0.0,0.0,0.0,0.0,0.0,0.0,0.0,0.0,0.0,0.0,0.0,0.0,0.0,0.0,0.0,0.0,0.0,0.00390625139698,-0.00781250279397,0.0195312574506,0.0,0.0,0.0,0.0,0.0,0.0,0.0,0.0,0.0
1583763072611253541,1171,1583763072547635993,imu,-0.0164184682071,-0.00799561105669,0.152893170714,0.988098859787,0.0,0.0,0.0,0.0,0.0,0.0,0.0,0.0,0.0,0.0,0.0,0.0,0.0,0.0,0.0,0.0,0.0,0.0,0.0,0.0,0.0,0.00390625139698,-0.00781250279397,0.0195312574506,0.0,0.0,0.0,0.0,0.0,0.0,0.0,0.0,0.0
1583763072638059308,1172,1583763072587635993,imu,-0.0164184682071,-0.00799561105669,0.152893170714,0.988098859787,0.0,0.0,0.0,0.0,0.0,0.0,0.0,0.0,0.0,0.0,0.0,0.0,0.0,0.0,0.0,0.0,0.0,0.0,0.0,0.0,0.0,-0.0312500111759,-0.00781250279397,-0.0195312574506,0.0,0.0,0.0,0.0,0.0,0.0,0.0,0.0,0.0
1583763072684265807,1173,1583763072648635993,imu,-0.0162963978946,-0.00793457590044,0.163452267647,0.986389875412,0.0,0.0,0.0,0.0,0.0,0.0,0.0,0.0,0.0,0.0,0.0,0.0,0.0,0.0,0.0,0.0,0.0,0.0,0.0,0.0,0.0,-0.0312500111759,-0.00781250279397,-0.0195312574506,0.0,0.0,0.0,0.0,0.0,0.0,0.0,0.0,0.0
1583763072732225181,1174,1583763072688635993,imu,-0.0162963978946,-0.00793457590044,0.163452267647,0.986389875412,0.0,0.0,0.0,0.0,0.0,0.0,0.0,0.0,0.0,0.0,0.0,0.0,0.0,0.0,0.0,0.0,0.0,0.0,0.0,0.0,0.0,-0.0312500111759,-0.00781250279397,0.0195312574506,0.0,0.0,0.0,0.0,0.0,0.0,0.0,0.0,0.0
1583763072811474006,1175,1583763072747635993,imu,-0.0161743275821,-0.00793457590044,0.174011349678,0.984558820724,0.0,0.0,0.0,0.0,0.0,0.0,0.0,0.0,0.0,0.0,0.0,0.0,0.0,0.0,0.0,0.0,0.0,0.0,0.0,0.0,0.0,-0.0312500111759,-0.00781250279397,0.0195312574506,0.0,0.0,0.0,0.0,0.0,0.0,0.0,0.0,0.0
1583763072825439444,1176,1583763072787635993,imu,-0.0161743275821,-0.00793457590044,0.174011349678,0.984558820724,0.0,0.0,0.0,0.0,0.0,0.0,0.0,0.0,0.0,0.0,0.0,0.0,0.0,0.0,0.0,0.0,0.0,0.0,0.0,0.0,0.0,0.0117187537253,-0.00781250279397,0.0117187537253,0.0,0.0,0.0,0.0,0.0,0.0,0.0,0.0,0.0
1583763072881894919,1177,1583763072847635993,imu,-0.0161132924259,-0.00799561105669,0.184387341142,0.982666730881,0.0,0.0,0.0,0.0,0.0,0.0,0.0,0.0,0.0,0.0,0.0,0.0,0.0,0.0,0.0,0.0,0.0,0.0,0.0,0.0,0.0,0.0117187537253,-0.00781250279397,0.0117187537253,0.0,0.0,0.0,0.0,0.0,0.0,0.0,0.0,0.0
1583763072933398894,1178,1583763072887635993,imu,-0.0161132924259,-0.00799561105669,0.184387341142,0.982666730881,0.0,0.0,0.0,0.0,0.0,0.0,0.0,0.0,0.0,0.0,0.0,0.0,0.0,0.0,0.0,0.0,0.0,0.0,0.0,0.0,0.0,-0.0312500111759,-0.00781250279397,0.0117187537253,0.0,0.0,0.0,0.0,0.0,0.0,0.0,0.0,0.0
1583763073014835654,1179,1583763072948635993,imu,-0.0159912221134,-0.00805664621294,0.194885388017,0.980652570724,0.0,0.0,0.0,0.0,0.0,0.0,0.0,0.0,0.0,0.0,0.0,0.0,0.0,0.0,0.0,0.0,0.0,0.0,0.0,0.0,0.0,-0.0312500111759,-0.00781250279397,0.0117187537253,0.0,0.0,0.0,0.0,0.0,0.0,0.0,0.0,0.0
1583763073045607894,1180,1583763072988635993,imu,-0.0159912221134,-0.00805664621294,0.194885388017,0.980652570724,0.0,0.0,0.0,0.0,0.0,0.0,0.0,0.0,0.0,0.0,0.0,0.0,0.0,0.0,0.0,0.0,0.0,0.0,0.0,0.0,0.0,-0.0234375074506,-0.00781250279397,0.00390625139698,0.0,0.0,0.0,0.0,0.0,0.0,0.0,0.0,0.0
1583763073119054097,1181,1583763073048635993,imu,-0.0159301869571,-0.00817871652544,0.205200344324,0.978577375412,0.0,0.0,0.0,0.0,0.0,0.0,0.0,0.0,0.0,0.0,0.0,0.0,0.0,0.0,0.0,0.0,0.0,0.0,0.0,0.0,0.0,-0.0234375074506,-0.00781250279397,0.00390625139698,0.0,0.0,0.0,0.0,0.0,0.0,0.0,0.0,0.0
1583763073136026887,1182,1583763073088635993,imu,-0.0159301869571,-0.00817871652544,0.205200344324,0.978577375412,0.0,0.0,0.0,0.0,0.0,0.0,0.0,0.0,0.0,0.0,0.0,0.0,0.0,0.0,0.0,0.0,0.0,0.0,0.0,0.0,0.0,0.0195312574506,-0.00781250279397,0.00390625139698,0.0,0.0,0.0,0.0,0.0,0.0,0.0,0.0,0.0
1583763073209105876,1183,1583763073147635993,imu,-0.0158691518009,-0.00817871652544,0.215698391199,0.976319074631,0.0,0.0,0.0,0.0,0.0,0.0,0.0,0.0,0.0,0.0,0.0,0.0,0.0,0.0,0.0,0.0,0.0,0.0,0.0,0.0,0.0,0.0195312574506,-0.00781250279397,0.00390625139698,0.0,0.0,0.0,0.0,0.0,0.0,0.0,0.0,0.0
1583763073234017198,1184,1583763073187635993,imu,-0.0158691518009,-0.00817871652544,0.215698391199,0.976319074631,0.0,0.0,0.0,0.0,0.0,0.0,0.0,0.0,0.0,0.0,0.0,0.0,0.0,0.0,0.0,0.0,0.0,0.0,0.0,0.0,0.0,-0.0703125223517,-0.0390625149012,0.00390625139698,0.0,0.0,0.0,0.0,0.0,0.0,0.0,0.0,0.0
1583763073315660950,1185,1583763073248635993,imu,-0.0158081166446,-0.00842285715044,0.226135417819,0.973938703537,0.0,0.0,0.0,0.0,0.0,0.0,0.0,0.0,0.0,0.0,0.0,0.0,0.0,0.0,0.0,0.0,0.0,0.0,0.0,0.0,0.0,-0.0703125223517,-0.0390625149012,0.00390625139698,0.0,0.0,0.0,0.0,0.0,0.0,0.0,0.0,0.0
1583763073333728333,1186,1583763073288635993,imu,-0.0158081166446,-0.00842285715044,0.226135417819,0.973938703537,0.0,0.0,0.0,0.0,0.0,0.0,0.0,0.0,0.0,0.0,0.0,0.0,0.0,0.0,0.0,0.0,0.0,0.0,0.0,0.0,0.0,0.0820312798023,0.0468750149012,-0.0273437593132,0.0,0.0,0.0,0.0,0.0,0.0,0.0,0.0,0.0
1583763073412161631,1187,1583763073347635993,imu,-0.0156860463321,-0.00878906901926,0.236267253757,0.971497297287,0.0,0.0,0.0,0.0,0.0,0.0,0.0,0.0,0.0,0.0,0.0,0.0,0.0,0.0,0.0,0.0,0.0,0.0,0.0,0.0,0.0,0.0820312798023,0.0468750149012,-0.0273437593132,0.0,0.0,0.0,0.0,0.0,0.0,0.0,0.0,0.0
1583763073435642468,1188,1583763073387635993,imu,-0.0156860463321,-0.00878906901926,0.236267253757,0.971497297287,0.0,0.0,0.0,0.0,0.0,0.0,0.0,0.0,0.0,0.0,0.0,0.0,0.0,0.0,0.0,0.0,0.0,0.0,0.0,0.0,0.0,0.0351562611759,0.0,0.0117187537253,0.0,0.0,0.0,0.0,0.0,0.0,0.0,0.0,0.0
1583763073514129961,1189,1583763073447635993,imu,-0.0156860463321,-0.00897217448801,0.246521174908,0.968994855881,0.0,0.0,0.0,0.0,0.0,0.0,0.0,0.0,0.0,0.0,0.0,0.0,0.0,0.0,0.0,0.0,0.0,0.0,0.0,0.0,0.0,0.0351562611759,0.0,0.0117187537253,0.0,0.0,0.0,0.0,0.0,0.0,0.0,0.0,0.0
1583763073533746850,1190,1583763073486635993,imu,-0.0156860463321,-0.00897217448801,0.246521174908,0.968994855881,0.0,0.0,0.0,0.0,0.0,0.0,0.0,0.0,0.0,0.0,0.0,0.0,0.0,0.0,0.0,0.0,0.0,0.0,0.0,0.0,0.0,-0.0390625149012,0.00781250279397,0.0117187537253,0.0,0.0,0.0,0.0,0.0,0.0,0.0,0.0,0.0
1583763073612449548,1191,1583763073548635993,imu,-0.0156250111759,-0.00927735026926,0.256469905376,0.966370344162,0.0,0.0,0.0,0.0,0.0,0.0,0.0,0.0,0.0,0.0,0.0,0.0,0.0,0.0,0.0,0.0,0.0,0.0,0.0,0.0,0.0,-0.0390625149012,0.00781250279397,0.0117187537253,0.0,0.0,0.0,0.0,0.0,0.0,0.0,0.0,0.0
1583763073637613394,1192,1583763073588635993,imu,-0.0156250111759,-0.00927735026926,0.256469905376,0.966370344162,0.0,0.0,0.0,0.0,0.0,0.0,0.0,0.0,0.0,0.0,0.0,0.0,0.0,0.0,0.0,0.0,0.0,0.0,0.0,0.0,0.0,-0.00390625139698,0.00781250279397,-0.0273437593132,0.0,0.0,0.0,0.0,0.0,0.0,0.0,0.0,0.0
1583763073685136106,1193,1583763073647635993,imu,-0.0155639760196,-0.00970459636301,0.266479671001,0.963684797287,0.0,0.0,0.0,0.0,0.0,0.0,0.0,0.0,0.0,0.0,0.0,0.0,0.0,0.0,0.0,0.0,0.0,0.0,0.0,0.0,0.0,-0.00390625139698,0.00781250279397,-0.0273437593132,0.0,0.0,0.0,0.0,0.0,0.0,0.0,0.0,0.0
1583763073738952529,1194,1583763073687635993,imu,-0.0155639760196,-0.00970459636301,0.266479671001,0.963684797287,0.0,0.0,0.0,0.0,0.0,0.0,0.0,0.0,0.0,0.0,0.0,0.0,0.0,0.0,0.0,0.0,0.0,0.0,0.0,0.0,0.0,0.0351562611759,-0.0468750149012,-0.0351562611759,0.0,0.0,0.0,0.0,0.0,0.0,0.0,0.0,0.0
1583763073809677067,1195,1583763073747635993,imu,-0.0153198353946,-0.00982666760683,0.276916712523,0.960694074631,0.0,0.0,0.0,0.0,0.0,0.0,0.0,0.0,0.0,0.0,0.0,0.0,0.0,0.0,0.0,0.0,0.0,0.0,0.0,0.0,0.0,0.0351562611759,-0.0468750149012,-0.0351562611759,0.0,0.0,0.0,0.0,0.0,0.0,0.0,0.0,0.0
1583763073834059490,1196,1583763073787635993,imu,-0.0153198353946,-0.00982666760683,0.276916712523,0.960694074631,0.0,0.0,0.0,0.0,0.0,0.0,0.0,0.0,0.0,0.0,0.0,0.0,0.0,0.0,0.0,0.0,0.0,0.0,0.0,0.0,0.0,0.0195312574506,0.0,-0.0273437593132,0.0,0.0,0.0,0.0,0.0,0.0,0.0,0.0,0.0
1583763073885842958,1197,1583763073848635993,imu,-0.0151977650821,-0.0101928785443,0.28704854846,0.957764327526,0.0,0.0,0.0,0.0,0.0,0.0,0.0,0.0,0.0,0.0,0.0,0.0,0.0,0.0,0.0,0.0,0.0,0.0,0.0,0.0,0.0,0.0195312574506,0.0,-0.0273437593132,0.0,0.0,0.0,0.0,0.0,0.0,0.0,0.0,0.0
1583763073935926413,1198,1583763073888635993,imu,-0.0151977650821,-0.0101928785443,0.28704854846,0.957764327526,0.0,0.0,0.0,0.0,0.0,0.0,0.0,0.0,0.0,0.0,0.0,0.0,0.0,0.0,0.0,0.0,0.0,0.0,0.0,0.0,0.0,-0.0195312574506,0.0390625149012,0.0195312574506,0.0,0.0,0.0,0.0,0.0,0.0,0.0,0.0,0.0
1583763074009432676,1199,1583763073947635993,imu,-0.0151367299259,-0.0104370191693,0.296447962523,0.954895675182,0.0,0.0,0.0,0.0,0.0,0.0,0.0,0.0,0.0,0.0,0.0,0.0,0.0,0.0,0.0,0.0,0.0,0.0,0.0,0.0,0.0,-0.0195312574506,0.0390625149012,0.0195312574506,0.0,0.0,0.0,0.0,0.0,0.0,0.0,0.0,0.0
1583763074039743276,1200,1583763073987635993,imu,-0.0151367299259,-0.0104370191693,0.296447962523,0.954895675182,0.0,0.0,0.0,0.0,0.0,0.0,0.0,0.0,0.0,0.0,0.0,0.0,0.0,0.0,0.0,0.0,0.0,0.0,0.0,0.0,0.0,-0.125000044703,-0.0703125223517,0.0195312574506,0.0,0.0,0.0,0.0,0.0,0.0,0.0,0.0,0.0
1583763074086109804,1201,1583763074047635993,imu,-0.0149536235258,-0.0104370191693,0.301330775023,0.953369796276,0.0,0.0,0.0,0.0,0.0,0.0,0.0,0.0,0.0,0.0,0.0,0.0,0.0,0.0,0.0,0.0,0.0,0.0,0.0,0.0,0.0,-0.125000044703,-0.0703125223517,0.0195312574506,0.0,0.0,0.0,0.0,0.0,0.0,0.0,0.0,0.0
1583763074134299377,1202,1583763074086635993,imu,-0.0149536235258,-0.0104370191693,0.301330775023,0.953369796276,0.0,0.0,0.0,0.0,0.0,0.0,0.0,0.0,0.0,0.0,0.0,0.0,0.0,0.0,0.0,0.0,0.0,0.0,0.0,0.0,0.0,-0.238281339407,-0.0625000223517,-0.0195312574506,0.0,0.0,0.0,0.0,0.0,0.0,0.0,0.0,0.0
1583763074214309479,1203,1583763074148635993,imu,-0.0151367299259,-0.0102539137006,0.303222864866,0.952759444714,0.0,0.0,0.0,0.0,0.0,0.0,0.0,0.0,0.0,0.0,0.0,0.0,0.0,0.0,0.0,0.0,0.0,0.0,0.0,0.0,0.0,-0.238281339407,-0.0625000223517,-0.0195312574506,0.0,0.0,0.0,0.0,0.0,0.0,0.0,0.0,0.0
1583763074234457395,1204,1583763074189635993,imu,-0.0151367299259,-0.0102539137006,0.303222864866,0.952759444714,0.0,0.0,0.0,0.0,0.0,0.0,0.0,0.0,0.0,0.0,0.0,0.0,0.0,0.0,0.0,0.0,0.0,0.0,0.0,0.0,0.0,0.128906294703,0.00781250279397,0.0195312574506,0.0,0.0,0.0,0.0,0.0,0.0,0.0,0.0,0.0
1583763074286985032,1205,1583763074247635993,imu,-0.0152588002384,-0.00970459636301,0.30413839221,0.952454268932,0.0,0.0,0.0,0.0,0.0,0.0,0.0,0.0,0.0,0.0,0.0,0.0,0.0,0.0,0.0,0.0,0.0,0.0,0.0,0.0,0.0,0.128906294703,0.00781250279397,0.0195312574506,0.0,0.0,0.0,0.0,0.0,0.0,0.0,0.0,0.0
1583763074335969752,1206,1583763074287635993,imu,-0.0152588002384,-0.00970459636301,0.30413839221,0.952454268932,0.0,0.0,0.0,0.0,0.0,0.0,0.0,0.0,0.0,0.0,0.0,0.0,0.0,0.0,0.0,0.0,0.0,0.0,0.0,0.0,0.0,0.0820312798023,0.00781250279397,0.0195312574506,0.0,0.0,0.0,0.0,0.0,0.0,0.0,0.0,0.0
1583763074402131620,1207,1583763074348635993,imu,-0.0152588002384,-0.00952149089426,0.304809778929,0.952271163464,0.0,0.0,0.0,0.0,0.0,0.0,0.0,0.0,0.0,0.0,0.0,0.0,0.0,0.0,0.0,0.0,0.0,0.0,0.0,0.0,0.0,0.0820312798023,0.00781250279397,0.0195312574506,0.0,0.0,0.0,0.0,0.0,0.0,0.0,0.0,0.0
1583763074430821500,1208,1583763074388635993,imu,-0.0152588002384,-0.00952149089426,0.304809778929,0.952271163464,0.0,0.0,0.0,0.0,0.0,0.0,0.0,0.0,0.0,0.0,0.0,0.0,0.0,0.0,0.0,0.0,0.0,0.0,0.0,0.0,0.0,0.0585937723517,-0.0312500111759,-0.0195312574506,0.0,0.0,0.0,0.0,0.0,0.0,0.0,0.0,0.0
1583763074486649597,1209,1583763074448635993,imu,-0.0153198353946,-0.00933838542551,0.305053919554,0.952149093151,0.0,0.0,0.0,0.0,0.0,0.0,0.0,0.0,0.0,0.0,0.0,0.0,0.0,0.0,0.0,0.0,0.0,0.0,0.0,0.0,0.0,0.0585937723517,-0.0312500111759,-0.0195312574506,0.0,0.0,0.0,0.0,0.0,0.0,0.0,0.0,0.0
1583763074534406371,1210,1583763074487635993,imu,-0.0153198353946,-0.00933838542551,0.305053919554,0.952149093151,0.0,0.0,0.0,0.0,0.0,0.0,0.0,0.0,0.0,0.0,0.0,0.0,0.0,0.0,0.0,0.0,0.0,0.0,0.0,0.0,0.0,0.0429687649012,-0.0312500111759,0.0195312574506,0.0,0.0,0.0,0.0,0.0,0.0,0.0,0.0,0.0
1583763074588273742,1211,1583763074547635993,imu,-0.0153808705509,-0.00933838542551,0.305237025023,0.952088057995,0.0,0.0,0.0,0.0,0.0,0.0,0.0,0.0,0.0,0.0,0.0,0.0,0.0,0.0,0.0,0.0,0.0,0.0,0.0,0.0,0.0,0.0429687649012,-0.0312500111759,0.0195312574506,0.0,0.0,0.0,0.0,0.0,0.0,0.0,0.0,0.0
1583763074636914828,1212,1583763074587635993,imu,-0.0153808705509,-0.00933838542551,0.305237025023,0.952088057995,0.0,0.0,0.0,0.0,0.0,0.0,0.0,0.0,0.0,0.0,0.0,0.0,0.0,0.0,0.0,0.0,0.0,0.0,0.0,0.0,0.0,0.0429687649012,0.00781250279397,0.0195312574506,0.0,0.0,0.0,0.0,0.0,0.0,0.0,0.0,0.0
1583763074693898694,1213,1583763074648635993,imu,-0.0154419057071,-0.00915527995676,0.305298060179,0.952088057995,0.0,0.0,0.0,0.0,0.0,0.0,0.0,0.0,0.0,0.0,0.0,0.0,0.0,0.0,0.0,0.0,0.0,0.0,0.0,0.0,0.0,0.0429687649012,0.00781250279397,0.0195312574506,0.0,0.0,0.0,0.0,0.0,0.0,0.0,0.0,0.0
1583763074728938324,1214,1583763074694787963,imu,-0.0154419057071,-0.00915527995676,0.305298060179,0.952088057995,0.0,0.0,0.0,0.0,0.0,0.0,0.0,0.0,0.0,0.0,0.0,0.0,0.0,0.0,0.0,0.0,0.0,0.0,0.0,0.0,0.0,0.0820312798023,0.0156250055879,0.0195312574506,0.0,0.0,0.0,0.0,0.0,0.0,0.0,0.0,0.0
1583763074786752745,1215,1583763074753787963,imu,-0.0155029408634,-0.00927735026926,0.305359095335,0.952088057995,0.0,0.0,0.0,0.0,0.0,0.0,0.0,0.0,0.0,0.0,0.0,0.0,0.0,0.0,0.0,0.0,0.0,0.0,0.0,0.0,0.0,0.0820312798023,0.0156250055879,0.0195312574506,0.0,0.0,0.0,0.0,0.0,0.0,0.0,0.0,0.0
1583763074833154056,1216,1583763074793787963,imu,-0.0155029408634,-0.00927735026926,0.305359095335,0.952088057995,0.0,0.0,0.0,0.0,0.0,0.0,0.0,0.0,0.0,0.0,0.0,0.0,0.0,0.0,0.0,0.0,0.0,0.0,0.0,0.0,0.0,0.0273437593132,-0.0156250055879,0.00390625139698,0.0,0.0,0.0,0.0,0.0,0.0,0.0,0.0,0.0
1583763074885515930,1217,1583763074854787963,imu,-0.0155029408634,-0.00946045573801,0.305359095335,0.952088057995,0.0,0.0,0.0,0.0,0.0,0.0,0.0,0.0,0.0,0.0,0.0,0.0,0.0,0.0,0.0,0.0,0.0,0.0,0.0,0.0,0.0,0.0273437593132,-0.0156250055879,0.00390625139698,0.0,0.0,0.0,0.0,0.0,0.0,0.0,0.0,0.0
1583763074936399573,1218,1583763074893787963,imu,-0.0155029408634,-0.00946045573801,0.305359095335,0.952088057995,0.0,0.0,0.0,0.0,0.0,0.0,0.0,0.0,0.0,0.0,0.0,0.0,0.0,0.0,0.0,0.0,0.0,0.0,0.0,0.0,0.0,0.0273437593132,0.0234375074506,0.00390625139698,0.0,0.0,0.0,0.0,0.0,0.0,0.0,0.0,0.0
1583763074990718159,1219,1583763074954787963,imu,-0.0154419057071,-0.00970459636301,0.305420130491,0.952027022839,0.0,0.0,0.0,0.0,0.0,0.0,0.0,0.0,0.0,0.0,0.0,0.0,0.0,0.0,0.0,0.0,0.0,0.0,0.0,0.0,0.0,0.0273437593132,0.0234375074506,0.00390625139698,0.0,0.0,0.0,0.0,0.0,0.0,0.0,0.0,0.0
1583763075032426930,1220,1583763074994787963,imu,-0.0154419057071,-0.00970459636301,0.305420130491,0.952027022839,0.0,0.0,0.0,0.0,0.0,0.0,0.0,0.0,0.0,0.0,0.0,0.0,0.0,0.0,0.0,0.0,0.0,0.0,0.0,0.0,0.0,-0.0195312574506,0.0156250055879,0.00390625139698,0.0,0.0,0.0,0.0,0.0,0.0,0.0,0.0,0.0
1583763075088059969,1221,1583763075053787963,imu,-0.0153808705509,-0.00994873791933,0.305420130491,0.952027022839,0.0,0.0,0.0,0.0,0.0,0.0,0.0,0.0,0.0,0.0,0.0,0.0,0.0,0.0,0.0,0.0,0.0,0.0,0.0,0.0,0.0,-0.0195312574506,0.0156250055879,0.00390625139698,0.0,0.0,0.0,0.0,0.0,0.0,0.0,0.0,0.0
1583763075134185172,1222,1583763075093787963,imu,-0.0153808705509,-0.00994873791933,0.305420130491,0.952027022839,0.0,0.0,0.0,0.0,0.0,0.0,0.0,0.0,0.0,0.0,0.0,0.0,0.0,0.0,0.0,0.0,0.0,0.0,0.0,0.0,0.0,0.0195312574506,-0.0234375074506,-0.0351562611759,0.0,0.0,0.0,0.0,0.0,0.0,0.0,0.0,0.0
1583763075191016154,1223,1583763075153787963,imu,-0.0152588002384,-0.0101318433881,0.305359095335,0.952027022839,0.0,0.0,0.0,0.0,0.0,0.0,0.0,0.0,0.0,0.0,0.0,0.0,0.0,0.0,0.0,0.0,0.0,0.0,0.0,0.0,0.0,0.0195312574506,-0.0234375074506,-0.0351562611759,0.0,0.0,0.0,0.0,0.0,0.0,0.0,0.0,0.0
1583763075236130813,1224,1583763075193787963,imu,-0.0152588002384,-0.0101318433881,0.305359095335,0.952027022839,0.0,0.0,0.0,0.0,0.0,0.0,0.0,0.0,0.0,0.0,0.0,0.0,0.0,0.0,0.0,0.0,0.0,0.0,0.0,0.0,0.0,0.0117187537253,-0.0156250055879,-0.0273437593132,0.0,0.0,0.0,0.0,0.0,0.0,0.0,0.0,0.0
1583763075287186102,1225,1583763075254787963,imu,-0.0152588002384,-0.0103759840131,0.305420130491,0.952027022839,0.0,0.0,0.0,0.0,0.0,0.0,0.0,0.0,0.0,0.0,0.0,0.0,0.0,0.0,0.0,0.0,0.0,0.0,0.0,0.0,0.0,0.0117187537253,-0.0156250055879,-0.0273437593132,0.0,0.0,0.0,0.0,0.0,0.0,0.0,0.0,0.0
1583763075331985448,1226,1583763075294787963,imu,-0.0152588002384,-0.0103759840131,0.305420130491,0.952027022839,0.0,0.0,0.0,0.0,0.0,0.0,0.0,0.0,0.0,0.0,0.0,0.0,0.0,0.0,0.0,0.0,0.0,0.0,0.0,0.0,0.0,0.0195312574506,-0.0156250055879,0.0195312574506,0.0,0.0,0.0,0.0,0.0,0.0,0.0,0.0,0.0
1583763075389283740,1227,1583763075354787963,imu,-0.0152588002384,-0.0105590894818,0.305420130491,0.952027022839,0.0,0.0,0.0,0.0,0.0,0.0,0.0,0.0,0.0,0.0,0.0,0.0,0.0,0.0,0.0,0.0,0.0,0.0,0.0,0.0,0.0,0.0195312574506,-0.0156250055879,0.0195312574506,0.0,0.0,0.0,0.0,0.0,0.0,0.0,0.0,0.0
1583763075429831472,1228,1583763075394787963,imu,-0.0152588002384,-0.0105590894818,0.305420130491,0.952027022839,0.0,0.0,0.0,0.0,0.0,0.0,0.0,0.0,0.0,0.0,0.0,0.0,0.0,0.0,0.0,0.0,0.0,0.0,0.0,0.0,0.0,-0.0273437593132,0.0312500111759,-0.0195312574506,0.0,0.0,0.0,0.0,0.0,0.0,0.0,0.0,0.0
1583763075490934322,1229,1583763075453787963,imu,-0.0151977650821,-0.0107421949506,0.305420130491,0.952027022839,0.0,0.0,0.0,0.0,0.0,0.0,0.0,0.0,0.0,0.0,0.0,0.0,0.0,0.0,0.0,0.0,0.0,0.0,0.0,0.0,0.0,-0.0273437593132,0.0312500111759,-0.0195312574506,0.0,0.0,0.0,0.0,0.0,0.0,0.0,0.0,0.0
1583763075534554237,1230,1583763075493787963,imu,-0.0151977650821,-0.0107421949506,0.305420130491,0.952027022839,0.0,0.0,0.0,0.0,0.0,0.0,0.0,0.0,0.0,0.0,0.0,0.0,0.0,0.0,0.0,0.0,0.0,0.0,0.0,0.0,0.0,0.0117187537253,-0.0156250055879,0.0195312574506,0.0,0.0,0.0,0.0,0.0,0.0,0.0,0.0,0.0
1583763075593987275,1231,1583763075554787963,imu,-0.0151367299259,-0.0109253004193,0.305420130491,0.952027022839,0.0,0.0,0.0,0.0,0.0,0.0,0.0,0.0,0.0,0.0,0.0,0.0,0.0,0.0,0.0,0.0,0.0,0.0,0.0,0.0,0.0,0.0117187537253,-0.0156250055879,0.0195312574506,0.0,0.0,0.0,0.0,0.0,0.0,0.0,0.0,0.0
1583763075630245434,1232,1583763075594787963,imu,-0.0151367299259,-0.0109253004193,0.305420130491,0.952027022839,0.0,0.0,0.0,0.0,0.0,0.0,0.0,0.0,0.0,0.0,0.0,0.0,0.0,0.0,0.0,0.0,0.0,0.0,0.0,0.0,0.0,0.00390625139698,0.0234375074506,-0.0195312574506,0.0,0.0,0.0,0.0,0.0,0.0,0.0,0.0,0.0
1583763075687564253,1233,1583763075654787963,imu,-0.0150756947696,-0.0111084068194,0.305420130491,0.952027022839,0.0,0.0,0.0,0.0,0.0,0.0,0.0,0.0,0.0,0.0,0.0,0.0,0.0,0.0,0.0,0.0,0.0,0.0,0.0,0.0,0.0,0.00390625139698,0.0234375074506,-0.0195312574506,0.0,0.0,0.0,0.0,0.0,0.0,0.0,0.0,0.0
1583763075732631897,1234,1583763075693787963,imu,-0.0150756947696,-0.0111084068194,0.305420130491,0.952027022839,0.0,0.0,0.0,0.0,0.0,0.0,0.0,0.0,0.0,0.0,0.0,0.0,0.0,0.0,0.0,0.0,0.0,0.0,0.0,0.0,0.0,0.00390625139698,-0.0156250055879,0.0195312574506,0.0,0.0,0.0,0.0,0.0,0.0,0.0,0.0,0.0
1583763075786507503,1235,1583763075753787963,imu,-0.0150756947696,-0.0112304771319,0.305359095335,0.952027022839,0.0,0.0,0.0,0.0,0.0,0.0,0.0,0.0,0.0,0.0,0.0,0.0,0.0,0.0,0.0,0.0,0.0,0.0,0.0,0.0,0.0,0.00390625139698,-0.0156250055879,0.0195312574506,0.0,0.0,0.0,0.0,0.0,0.0,0.0,0.0,0.0
1583763075833860719,1236,1583763075793787963,imu,-0.0150756947696,-0.0112304771319,0.305359095335,0.952027022839,0.0,0.0,0.0,0.0,0.0,0.0,0.0,0.0,0.0,0.0,0.0,0.0,0.0,0.0,0.0,0.0,0.0,0.0,0.0,0.0,0.0,0.0117187537253,-0.0156250055879,0.0195312574506,0.0,0.0,0.0,0.0,0.0,0.0,0.0,0.0,0.0
1583763075895843131,1237,1583763075853787963,imu,-0.0150756947696,-0.0113525474444,0.305420130491,0.952027022839,0.0,0.0,0.0,0.0,0.0,0.0,0.0,0.0,0.0,0.0,0.0,0.0,0.0,0.0,0.0,0.0,0.0,0.0,0.0,0.0,0.0,0.0117187537253,-0.0156250055879,0.0195312574506,0.0,0.0,0.0,0.0,0.0,0.0,0.0,0.0,0.0
1583763075933495628,1238,1583763075893787963,imu,-0.0150756947696,-0.0113525474444,0.305420130491,0.952027022839,0.0,0.0,0.0,0.0,0.0,0.0,0.0,0.0,0.0,0.0,0.0,0.0,0.0,0.0,0.0,0.0,0.0,0.0,0.0,0.0,0.0,-0.0273437593132,0.0234375074506,-0.0195312574506,0.0,0.0,0.0,0.0,0.0,0.0,0.0,0.0,0.0
1583763075991337201,1239,1583763075954787963,imu,-0.0150146596134,-0.0114135826007,0.305420130491,0.952027022839,0.0,0.0,0.0,0.0,0.0,0.0,0.0,0.0,0.0,0.0,0.0,0.0,0.0,0.0,0.0,0.0,0.0,0.0,0.0,0.0,0.0,-0.0273437593132,0.0234375074506,-0.0195312574506,0.0,0.0,0.0,0.0,0.0,0.0,0.0,0.0,0.0
1583763076033388284,1240,1583763075994787963,imu,-0.0150146596134,-0.0114135826007,0.305420130491,0.952027022839,0.0,0.0,0.0,0.0,0.0,0.0,0.0,0.0,0.0,0.0,0.0,0.0,0.0,0.0,0.0,0.0,0.0,0.0,0.0,0.0,0.0,0.0195312574506,0.0156250055879,0.0195312574506,0.0,0.0,0.0,0.0,0.0,0.0,0.0,0.0,0.0
1583763076090072933,1241,1583763076053787963,imu,-0.0149536235258,-0.0115356529132,0.305420130491,0.952027022839,0.0,0.0,0.0,0.0,0.0,0.0,0.0,0.0,0.0,0.0,0.0,0.0,0.0,0.0,0.0,0.0,0.0,0.0,0.0,0.0,0.0,0.0195312574506,0.0156250055879,0.0195312574506,0.0,0.0,0.0,0.0,0.0,0.0,0.0,0.0,0.0
1583763076134319113,1242,1583763076093787963,imu,-0.0149536235258,-0.0115356529132,0.305420130491,0.952027022839,0.0,0.0,0.0,0.0,0.0,0.0,0.0,0.0,0.0,0.0,0.0,0.0,0.0,0.0,0.0,0.0,0.0,0.0,0.0,0.0,0.0,0.0117187537253,0.00781250279397,-0.0195312574506,0.0,0.0,0.0,0.0,0.0,0.0,0.0,0.0,0.0
