%time,field.header.seq,field.header.stamp,field.header.frame_id,field.orientation.x,field.orientation.y,field.orientation.z,field.orientation.w,field.orientation_covariance0,field.orientation_covariance1,field.orientation_covariance2,field.orientation_covariance3,field.orientation_covariance4,field.orientation_covariance5,field.orientation_covariance6,field.orientation_covariance7,field.orientation_covariance8,field.angular_velocity.x,field.angular_velocity.y,field.angular_velocity.z,field.angular_velocity_covariance0,field.angular_velocity_covariance1,field.angular_velocity_covariance2,field.angular_velocity_covariance3,field.angular_velocity_covariance4,field.angular_velocity_covariance5,field.angular_velocity_covariance6,field.angular_velocity_covariance7,field.angular_velocity_covariance8,field.linear_acceleration.x,field.linear_acceleration.y,field.linear_acceleration.z,field.linear_acceleration_covariance0,field.linear_acceleration_covariance1,field.linear_acceleration_covariance2,field.linear_acceleration_covariance3,field.linear_acceleration_covariance4,field.linear_acceleration_covariance5,field.linear_acceleration_covariance6,field.linear_acceleration_covariance7,field.linear_acceleration_covariance8
1583763060238191053,1,1583763052449411989,imu,-0.0252075381577,-0.00378418248147,0.150529909763,0.988605455309,0.0,0.0,0.0,0.0,0.0,0.0,0.0,0.0,0.0,0.0,0.0,0.0,0.0,0.0,0.0,0.0,0.0,0.0,0.0,0.0,0.0,0.0,0.0195312574506,0.0273437593132,0.0,0.0,0.0,0.0,0.0,0.0,0.0,0.0,0.0
1583763060238235366,2,1583763052550411989,imu,-0.025268573314,-0.00378418248147,0.150179841586,0.988658694991,0.0,0.0,0.0,0.0,0.0,0.0,0.0,0.0,0.0,0.0,0.0,0.0,0.0,0.0,0.0,0.0,0.0,0.0,0.0,0.0,0.0,0.0,-0.0195312574506,0.0195312574506,0.0,0.0,0.0,0.0,0.0,0.0,0.0,0.0,0.0
1583763060238277228,3,1583763052649411989,imu,-0.0253296084702,-0.00378418248147,0.149842272863,0.988709913606,0.0,0.0,0.0,0.0,0.0,0.0,0.0,0.0,0.0,0.0,0.0,0.0,0.0,0.0,0.0,0.0,0.0,0.0,0.0,0.0,0.0,0.0,0.0195312574506,-0.0195312574506,0.0,0.0,0.0,0.0,0.0,0.0,0.0,0.0,0.0
1583763060238318588,4,1583763052749411989,imu,-0.0253296084702,-0.00378418248147,0.149825935691,0.988712389421,0.0,0.0,0.0,0.0,0.0,0.0,0.0,0.0,0.0,0.0,0.0,0.0,0.0,0.0,0.0,0.0,0.0,0.0,0.0,0.0,0.0,0.0,0.0117187537253,-0.0195312574506,0.0,0.0,0.0,0.0,0.0,0.0,0.0,0.0,0.0
1583763060238375178,5,1583763052849411989,imu,-0.0253296084702,-0.00378418248147,0.149825935691,0.988712389421,0.0,0.0,0.0,0.0,0.0,0.0,0.0,0.0,0.0,0.0,0.0,0.0,0.0,0.0,0.0,0.0,0.0,0.0,0.0,0.0,0.0,0.0,0.0117187537253,0.0273437593132,0.0,0.0,0.0,0.0,0.0,0.0,0.0,0.0,0.0
1583763060238411867,6,1583763052949411989,imu,-0.0253296084702,-0.00378418248147,0.149825935691,0.988712389421,0.0,0.0,0.0,0.0,0.0,0.0,0.0,0.0,0.0,0.0,0.0,0.0,0.0,0.0,0.0,0.0,0.0,0.0,0.0,0.0,0.0,0.0,0.00390625139698,-0.0117187537253,0.0,0.0,0.0,0.0,0.0,0.0,0.0,0.0,0.0
1583763060238445819,7,1583763053048411989,imu,-0.025268573314,-0.00378418248147,0.150179841586,0.988658694991,0.0,0.0,0.0,0.0,0.0,0.0,0.0,0.0,0.0,0.0,0.0,0.0,0.0,0.0,0.0,0.0,0.0,0.0,0.0,0.0,0.0,0.0,0.00390625139698,0.0273437593132,0.0,0.0,0.0,0.0,0.0,0.0,0.0,0.0,0.0
1583763060238479268,8,1583763053150411989,imu,-0.0252075381577,-0.00378418248147,0.150529909763,0.988605455309,0.0,0.0,0.0,0.0,0.0,0.0,0.0,0.0,0.0,0.0,0.0,0.0,0.0,0.0,0.0,0.0,0.0,0.0,0.0,0.0,0.0,0.0,0.00390625139698,-0.0195312574506,0.0,0.0,0.0,0.0,0.0,0.0,0.0,0.0,0.0
1583763060238516167,9,1583763053249411989,imu,-0.0252075381577,-0.00378418248147,0.150529909763,0.988605455309,0.0,0.0,0.0,0.0,0.0,0.0,0.0,0.0,0.0,0.0,0.0,0.0,0.0,0.0,0.0,0.0,0.0,0.0,0.0,0.0,0.0,0.0,-0.0273437593132,0.0195312574506,0.0,0.0,0.0,0.0,0.0,0.0,0.0,0.0,0.0
1583763060238551936,10,1583763053349411989,imu,-0.0252075381577,-0.00372314709239,0.148154742111,0.988964191662,0.0,0.0,0.0,0.0,0.0,0.0,0.0,0.0,0.0,0.0,0.0,0.0,0.0,0.0,0.0,0.0,0.0,0.0,0.0,0.0,0.0,0.00781250279397,0.0117187537253,0.0117187537253,0.0,0.0,0.0,0.0,0.0,0.0,0.0,0.0,0.0
1583763060238599509,11,1583763053449411989,imu,-0.0251465030015,-0.00366211193614,0.146129030425,0.989265538906,0.0,0.0,0.0,0.0,0.0,0.0,0.0,0.0,0.0,0.0,0.0,0.0,0.0,0.0,0.0,0.0,0.0,0.0,0.0,0.0,0.0,0.00781250279397,-0.0273437593132,0.0117187537253,0.0,0.0,0.0,0.0,0.0,0.0,0.0,0.0,0.0
1583763060238649923,12,1583763053549411989,imu,-0.0250854678452,-0.00366211193614,0.146477107025,0.989214060311,0.0,0.0,0.0,0.0,0.0,0.0,0.0,0.0,0.0,0.0,0.0,0.0,0.0,0.0,0.0,0.0,0.0,0.0,0.0,0.0,0.0,0.0,0.0117187537253,0.00390625139698,0.0,0.0,0.0,0.0,0.0,0.0,0.0,0.0,0.0
1583763060238697699,13,1583763053648411989,imu,-0.025024432689,-0.00372314709239,0.149237519053,0.988801376873,0.0,0.0,0.0,0.0,0.0,0.0,0.0,0.0,0.0,0.0,0.0,0.0,0.0,0.0,0.0,0.0,0.0,0.0,0.0,0.0,0.0,0.0,0.0117187537253,-0.0273437593132,0.0,0.0,0.0,0.0,0.0,0.0,0.0,0.0,0.0
1583763060238744866,14,1583763053749411989,imu,-0.025024432689,-0.00378418248147,0.151628855217,0.988437499423,0.0,0.0,0.0,0.0,0.0,0.0,0.0,0.0,0.0,0.0,0.0,0.0,0.0,0.0,0.0,0.0,0.0,0.0,0.0,0.0,0.0,0.0,-0.0273437593132,0.0117187537253,0.0,0.0,0.0,0.0,0.0,0.0,0.0,0.0,0.0
1583763060239199852,15,1583763053849411989,imu,-0.0250854678452,-0.00378418248147,0.151251546341,0.988495305871,0.0,0.0,0.0,0.0,0.0,0.0,0.0,0.0,0.0,0.0,0.0,0.0,0.0,0.0,0.0,0.0,0.0,0.0,0.0,0.0,0.0,0.0,-0.0117187537253,0.0117187537253,0.0,0.0,0.0,0.0,0.0,0.0,0.0,0.0,0.0
1583763060239575467,16,1583763053948411989,imu,-0.0251465030015,-0.00378418248147,0.150892635334,0.988550156847,0.0,0.0,0.0,0.0,0.0,0.0,0.0,0.0,0.0,0.0,0.0,0.0,0.0,0.0,0.0,0.0,0.0,0.0,0.0,0.0,0.0,-0.00781250279397,0.0273437593132,-0.0273437593132,0.0,0.0,0.0,0.0,0.0,0.0,0.0,0.0,0.0
1583763060239605619,17,1583763054049411989,imu,-0.0252075381577,-0.00378418248147,0.150535404292,0.988604618669,0.0,0.0,0.0,0.0,0.0,0.0,0.0,0.0,0.0,0.0,0.0,0.0,0.0,0.0,0.0,0.0,0.0,0.0,0.0,0.0,0.0,0.0,0.0195312574506,0.0117187537253,0.0,0.0,0.0,0.0,0.0,0.0,0.0,0.0,0.0
1583763060239640728,18,1583763054149411989,imu,-0.0252075381577,-0.00384521763772,0.152907993213,0.988240429051,0.0,0.0,0.0,0.0,0.0,0.0,0.0,0.0,0.0,0.0,0.0,0.0,0.0,0.0,0.0,0.0,0.0,0.0,0.0,0.0,0.0,0.0,0.0195312574506,-0.0273437593132,0.0,0.0,0.0,0.0,0.0,0.0,0.0,0.0,0.0
1583763060239694738,19,1583763054254393013,imu,-0.0252075381577,-0.00384521763772,0.152907993213,0.988240429051,0.0,0.0,0.0,0.0,0.0,0.0,0.0,0.0,0.0,0.0,0.0,0.0,0.0,0.0,0.0,0.0,0.0,0.0,0.0,0.0,0.0,0.0,0.0117187537253,-0.0195312574506,0.0,0.0,0.0,0.0,0.0,0.0,0.0,0.0,0.0
1583763060239784207,20,1583763054353393013,imu,-0.0251465030015,-0.00384521763772,0.153270591019,0.988184257074,0.0,0.0,0.0,0.0,0.0,0.0,0.0,0.0,0.0,0.0,0.0,0.0,0.0,0.0,0.0,0.0,0.0,0.0,0.0,0.0,0.0,0.0,-0.0273437593132,0.0195312574506,0.0,0.0,0.0,0.0,0.0,0.0,0.0,0.0,0.0
1583763060240022233,21,1583763054453393013,imu,-0.0250854678452,-0.00390625279397,0.156015608977,0.987754589843,0.0,0.0,0.0,0.0,0.0,0.0,0.0,0.0,0.0,0.0,0.0,0.0,0.0,0.0,0.0,0.0,0.0,0.0,0.0,0.0,0.0,-0.00781250279397,0.0195312574506,-0.0195312574506,0.0,0.0,0.0,0.0,0.0,0.0,0.0,0.0,0.0
1583763060240159642,22,1583763054553393013,imu,-0.0250854678452,-0.00396728795022,0.15839366004,0.987376042073,0.0,0.0,0.0,0.0,0.0,0.0,0.0,0.0,0.0,0.0,0.0,0.0,0.0,0.0,0.0,0.0,0.0,0.0,0.0,0.0,0.0,-0.00781250279397,0.0195312574506,0.0195312574506,0.0,0.0,0.0,0.0,0.0,0.0,0.0,0.0,0.0
1583763060241727041,23,1583763054654393013,imu,-0.0250854678452,-0.00402832310647,0.16076352302,0.9869929532,0.0,0.0,0.0,0.0,0.0,0.0,0.0,0.0,0.0,0.0,0.0,0.0,0.0,0.0,0.0,0.0,0.0,0.0,0.0,0.0,0.0,0.0,0.0117187537253,-0.0195312574506,0.0,0.0,0.0,0.0,0.0,0.0,0.0,0.0,0.0
1583763060241968120,24,1583763054753393013,imu,-0.0250854678452,-0.00396728795022,0.158388159498,0.987376924447,0.0,0.0,0.0,0.0,0.0,0.0,0.0,0.0,0.0,0.0,0.0,0.0,0.0,0.0,0.0,0.0,0.0,0.0,0.0,0.0,0.0,0.0,0.0117187537253,-0.0195312574506,0.0,0.0,0.0,0.0,0.0,0.0,0.0,0.0,0.0
1583763060242954588,25,1583763054853393013,imu,-0.0250854678452,-0.00396728795022,0.15839366004,0.987376042073,0.0,0.0,0.0,0.0,0.0,0.0,0.0,0.0,0.0,0.0,0.0,0.0,0.0,0.0,0.0,0.0,0.0,0.0,0.0,0.0,0.0,0.0,-0.0273437593132,0.0195312574506,0.0,0.0,0.0,0.0,0.0,0.0,0.0,0.0,0.0
1583763060243663915,26,1583763054953393013,imu,-0.0251465030015,-0.00390625279397,0.155645936104,0.98781290869,0.0,0.0,0.0,0.0,0.0,0.0,0.0,0.0,0.0,0.0,0.0,0.0,0.0,0.0,0.0,0.0,0.0,0.0,0.0,0.0,0.0,0.0,0.0195312574506,-0.0195312574506,0.0,0.0,0.0,0.0,0.0,0.0,0.0,0.0,0.0
1583763060243870415,27,1583763055052393013,imu,-0.0252075381577,-0.00390625279397,0.155272523388,0.98787167359,0.0,0.0,0.0,0.0,0.0,0.0,0.0,0.0,0.0,0.0,0.0,0.0,0.0,0.0,0.0,0.0,0.0,0.0,0.0,0.0,0.0,0.0,0.0195312574506,0.0195312574506,0.0,0.0,0.0,0.0,0.0,0.0,0.0,0.0,0.0
1583763060243919558,28,1583763055152393013,imu,-0.0252075381577,-0.00384521763772,0.152907993213,0.988240429051,0.0,0.0,0.0,0.0,0.0,0.0,0.0,0.0,0.0,0.0,0.0,0.0,0.0,0.0,0.0,0.0,0.0,0.0,0.0,0.0,0.0,0.0,0.0195312574506,0.0195312574506,0.0,0.0,0.0,0.0,0.0,0.0,0.0,0.0,0.0
1583763060243980031,29,1583763055253393013,imu,-0.0252075381577,-0.00390625279397,0.155277989733,0.98787081438,0.0,0.0,0.0,0.0,0.0,0.0,0.0,0.0,0.0,0.0,0.0,0.0,0.0,0.0,0.0,0.0,0.0,0.0,0.0,0.0,0.0,0.0,0.0195312574506,0.0195312574506,0.0,0.0,0.0,0.0,0.0,0.0,0.0,0.0,0.0
1583763060244103166,30,1583763055352393013,imu,-0.0251465030015,-0.00384521763772,0.153270591019,0.988184257074,0.0,0.0,0.0,0.0,0.0,0.0,0.0,0.0,0.0,0.0,0.0,0.0,0.0,0.0,0.0,0.0,0.0,0.0,0.0,0.0,0.0,0.0,0.0117187537253,0.0117187537253,0.0,0.0,0.0,0.0,0.0,0.0,0.0,0.0,0.0
1583763060244181629,31,1583763055452393013,imu,-0.0250854678452,-0.00384521763772,0.153634892142,0.988127684015,0.0,0.0,0.0,0.0,0.0,0.0,0.0,0.0,0.0,0.0,0.0,0.0,0.0,0.0,0.0,0.0,0.0,0.0,0.0,0.0,0.0,0.0,0.0117187537253,-0.0273437593132,0.0,0.0,0.0,0.0,0.0,0.0,0.0,0.0,0.0
1583763060244314544,32,1583763055553393013,imu,-0.0250854678452,-0.00390625279397,0.156015608977,0.987754589843,0.0,0.0,0.0,0.0,0.0,0.0,0.0,0.0,0.0,0.0,0.0,0.0,0.0,0.0,0.0,0.0,0.0,0.0,0.0,0.0,0.0,0.0,0.0117187537253,0.0117187537253,0.0,0.0,0.0,0.0,0.0,0.0,0.0,0.0,0.0
1583763060244755562,33,1583763055653393013,imu,-0.0251465030015,-0.00390625279397,0.155645936104,0.98781290869,0.0,0.0,0.0,0.0,0.0,0.0,0.0,0.0,0.0,0.0,0.0,0.0,0.0,0.0,0.0,0.0,0.0,0.0,0.0,0.0,0.0,0.0,0.0117187537253,0.0117187537253,0.0,0.0,0.0,0.0,0.0,0.0,0.0,0.0,0.0
1583763060244992507,34,1583763055753393013,imu,-0.0251465030015,-0.00384521763772,0.153710852616,0.988115870629,0.0,0.0,0.0,0.0,0.0,0.0,0.0,0.0,0.0,0.0,0.0,0.0,0.0,0.0,0.0,0.0,0.0,0.0,0.0,0.0,0.0,0.0664062723517,0.292968869209,0.0117187537253,0.0,0.0,0.0,0.0,0.0,0.0,0.0,0.0,0.0
1583763060245067420,35,1583763055853393013,imu,-0.024780292064,-0.00384521763772,0.156290588117,0.987711117719,0.0,0.0,0.0,0.0,0.0,0.0,0.0,0.0,0.0,0.0,0.0,0.0,0.0,0.0,0.0,0.0,0.0,0.0,0.0,0.0,0.0,0.0273437593132,0.0859375298023,0.00390625139698,0.0,0.0,0.0,0.0,0.0,0.0,0.0,0.0,0.0
1583763060245076681,36,1583763055953393013,imu,-0.0241089034826,-0.00396728795022,0.16596536446,0.986131582396,0.0,0.0,0.0,0.0,0.0,0.0,0.0,0.0,0.0,0.0,0.0,0.0,0.0,0.0,0.0,0.0,0.0,0.0,0.0,0.0,0.0,-0.00781250279397,0.105468787253,-0.0273437593132,0.0,0.0,0.0,0.0,0.0,0.0,0.0,0.0,0.0
1583763060245094631,37,1583763056053393013,imu,-0.0233154464513,-0.00402832310647,0.175378334788,0.98450111208,0.0,0.0,0.0,0.0,0.0,0.0,0.0,0.0,0.0,0.0,0.0,0.0,0.0,0.0,0.0,0.0,0.0,0.0,0.0,0.0,0.0,0.0195312574506,0.0898437798023,0.0117187537253,0.0,0.0,0.0,0.0,0.0,0.0,0.0,0.0,0.0
1583763060245120230,38,1583763056153393013,imu,-0.0225830245763,-0.00402832310647,0.181856121149,0.983325150294,0.0,0.0,0.0,0.0,0.0,0.0,0.0,0.0,0.0,0.0,0.0,0.0,0.0,0.0,0.0,0.0,0.0,0.0,0.0,0.0,0.0,-0.00781250279397,0.0820312798023,0.0507812686265,0.0,0.0,0.0,0.0,0.0,0.0,0.0,0.0,0.0
1583763060245134038,39,1583763056252393013,imu,-0.0217285305262,-0.00427246419713,0.201067825151,0.979577321955,0.0,0.0,0.0,0.0,0.0,0.0,0.0,0.0,0.0,0.0,0.0,0.0,0.0,0.0,0.0,0.0,0.0,0.0,0.0,0.0,0.0,0.0195312574506,-0.00781250279397,-0.0351562611759,0.0,0.0,0.0,0.0,0.0,0.0,0.0,0.0,0.0
1583763060245148410,40,1583763056353393013,imu,-0.0209350734949,-0.00439453450963,0.214461611301,0.976732418464,0.0,0.0,0.0,0.0,0.0,0.0,0.0,0.0,0.0,0.0,0.0,0.0,0.0,0.0,0.0,0.0,0.0,0.0,0.0,0.0,0.0,-0.0156250055879,0.0585937723517,0.00390625139698,0.0,0.0,0.0,0.0,0.0,0.0,0.0,0.0,0.0
1583763060245160260,41,1583763056453393013,imu,-0.0198974758387,-0.00439453450963,0.225369545002,0.974273353934,0.0,0.0,0.0,0.0,0.0,0.0,0.0,0.0,0.0,0.0,0.0,0.0,0.0,0.0,0.0,0.0,0.0,0.0,0.0,0.0,0.0,0.0195312574506,-0.0312500111759,-0.0664062723517,0.0,0.0,0.0,0.0,0.0,0.0,0.0,0.0,0.0
1583763060245211001,42,1583763056553393013,imu,-0.0192260872573,-0.00476074544713,0.251040173034,0.967976668894,0.0,0.0,0.0,0.0,0.0,0.0,0.0,0.0,0.0,0.0,0.0,0.0,0.0,0.0,0.0,0.0,0.0,0.0,0.0,0.0,0.0,-0.0156250055879,0.0820312798023,-0.0195312574506,0.0,0.0,0.0,0.0,0.0,0.0,0.0,0.0,0.0
1583763060245381459,43,1583763056653393013,imu,-0.0185547005385,-0.00488281622529,0.266728653563,0.963771666614,0.0,0.0,0.0,0.0,0.0,0.0,0.0,0.0,0.0,0.0,0.0,0.0,0.0,0.0,0.0,0.0,0.0,0.0,0.0,0.0,0.0,0.0195312574506,-0.00781250279397,0.0195312574506,0.0,0.0,0.0,0.0,0.0,0.0,0.0,0.0,0.0
1583763060245538376,44,1583763056755393013,imu,-0.0178222786635,-0.00531006231904,0.297224611371,0.954807588153,0.0,0.0,0.0,0.0,0.0,0.0,0.0,0.0,0.0,0.0,0.0,0.0,0.0,0.0,0.0,0.0,0.0,0.0,0.0,0.0,0.0,-0.0312500111759,0.0195312574506,-0.0585937723517,0.0,0.0,0.0,0.0,0.0,0.0,0.0,0.0,0.0
1583763060245625288,45,1583763056860198904,imu,-0.0173950325698,-0.00531006231904,0.302475448249,0.953157176549,0.0,0.0,0.0,0.0,0.0,0.0,0.0,0.0,0.0,0.0,0.0,0.0,0.0,0.0,0.0,0.0,0.0,0.0,0.0,0.0,0.0,0.0507812686265,-0.246093839407,0.0117187537253,0.0,0.0,0.0,0.0,0.0,0.0,0.0,0.0,0.0
1583763060246226019,46,1583763056960198904,imu,-0.017211927101,-0.00573730887845,0.325902274743,0.945403462717,0.0,0.0,0.0,0.0,0.0,0.0,0.0,0.0,0.0,0.0,0.0,0.0,0.0,0.0,0.0,0.0,0.0,0.0,0.0,0.0,0.0,-0.0390625149012,-0.0312500111759,-0.0351562611759,0.0,0.0,0.0,0.0,0.0,0.0,0.0,0.0,0.0
1583763060246256483,47,1583763057060198904,imu,-0.0173950325698,-0.00598144950345,0.334720358145,0.942317505856,0.0,0.0,0.0,0.0,0.0,0.0,0.0,0.0,0.0,0.0,0.0,0.0,0.0,0.0,0.0,0.0,0.0,0.0,0.0,0.0,0.0,0.0273437593132,-0.0390625149012,0.00390625139698,0.0,0.0,0.0,0.0,0.0,0.0,0.0,0.0,0.0
1583763060246278566,48,1583763057160198904,imu,-0.0178222786635,-0.00549316778779,0.30387165307,0.952712978006,0.0,0.0,0.0,0.0,0.0,0.0,0.0,0.0,0.0,0.0,0.0,0.0,0.0,0.0,0.0,0.0,0.0,0.0,0.0,0.0,0.0,0.0273437593132,-0.0585937723517,0.0429687649012,0.0,0.0,0.0,0.0,0.0,0.0,0.0,0.0,0.0
1583763060246304415,49,1583763057260198904,imu,-0.0180664192885,-0.00585937919095,0.316927917259,0.948449627161,0.0,0.0,0.0,0.0,0.0,0.0,0.0,0.0,0.0,0.0,0.0,0.0,0.0,0.0,0.0,0.0,0.0,0.0,0.0,0.0,0.0,-0.0195312574506,-0.0351562611759,-0.0742187798023,0.0,0.0,0.0,0.0,0.0,0.0,0.0,0.0,0.0
1583763060246394243,50,1583763057360198904,imu,-0.018676770851,-0.0059204143472,0.309971752955,0.950745766422,0.0,0.0,0.0,0.0,0.0,0.0,0.0,0.0,0.0,0.0,0.0,0.0,0.0,0.0,0.0,0.0,0.0,0.0,0.0,0.0,0.0,-0.0195312574506,-0.0273437593132,0.00390625139698,0.0,0.0,0.0,0.0,0.0,0.0,0.0,0.0,0.0
1583763060246514531,51,1583763057459198904,imu,-0.0191040169448,-0.00598144950345,0.306103618768,0.951998200932,0.0,0.0,0.0,0.0,0.0,0.0,0.0,0.0,0.0,0.0,0.0,0.0,0.0,0.0,0.0,0.0,0.0,0.0,0.0,0.0,0.0,0.0195312574506,0.0390625149012,0.00390625139698,0.0,0.0,0.0,0.0,0.0,0.0,0.0,0.0,0.0
1583763060246534310,52,1583763057559198904,imu,-0.0197143703699,-0.00573730887845,0.286743663616,0.958007344114,0.0,0.0,0.0,0.0,0.0,0.0,0.0,0.0,0.0,0.0,0.0,0.0,0.0,0.0,0.0,0.0,0.0,0.0,0.0,0.0,0.0,-0.0546875186265,-0.0195312574506,0.00390625139698,0.0,0.0,0.0,0.0,0.0,0.0,0.0,0.0,0.0
1583763060246582700,53,1583763057659198904,imu,-0.0203247219324,-0.00531006231904,0.260737557573,0.965409719275,0.0,0.0,0.0,0.0,0.0,0.0,0.0,0.0,0.0,0.0,0.0,0.0,0.0,0.0,0.0,0.0,0.0,0.0,0.0,0.0,0.0,-0.0390625149012,0.0234375074506,0.00390625139698,0.0,0.0,0.0,0.0,0.0,0.0,0.0,0.0,0.0
1583763060246596836,54,1583763057759198904,imu,-0.0206298977137,-0.00531006231904,0.257085572884,0.966388642429,0.0,0.0,0.0,0.0,0.0,0.0,0.0,0.0,0.0,0.0,0.0,0.0,0.0,0.0,0.0,0.0,0.0,0.0,0.0,0.0,0.0,-0.00390625139698,-0.0195312574506,0.00390625139698,0.0,0.0,0.0,0.0,0.0,0.0,0.0,0.0,0.0
1583763060246749937,55,1583763057859198904,imu,-0.0211181789637,-0.00482178060338,0.230067221562,0.97317473948,0.0,0.0,0.0,0.0,0.0,0.0,0.0,0.0,0.0,0.0,0.0,0.0,0.0,0.0,0.0,0.0,0.0,0.0,0.0,0.0,0.0,0.0195312574506,0.0234375074506,0.0429687649012,0.0,0.0,0.0,0.0,0.0,0.0,0.0,0.0,0.0
1583763060246922093,56,1583763057959198904,imu,-0.0215454250574,-0.00512695685029,0.23884945742,0.971056608386,0.0,0.0,0.0,0.0,0.0,0.0,0.0,0.0,0.0,0.0,0.0,0.0,0.0,0.0,0.0,0.0,0.0,0.0,0.0,0.0,0.0,0.0117187537253,0.0234375074506,0.00390625139698,0.0,0.0,0.0,0.0,0.0,0.0,0.0,0.0,0.0
1583763060247647580,57,1583763058060198904,imu,-0.0216674953699,-0.00506592169404,0.235631963564,0.971842362602,0.0,0.0,0.0,0.0,0.0,0.0,0.0,0.0,0.0,0.0,0.0,0.0,0.0,0.0,0.0,0.0,0.0,0.0,0.0,0.0,0.0,0.0117187537253,-0.0195312574506,0.00390625139698,0.0,0.0,0.0,0.0,0.0,0.0,0.0,0.0,0.0
1583763060247800185,58,1583763058160198904,imu,-0.0220947414637,-0.00506592169404,0.23195991739,0.972725344958,0.0,0.0,0.0,0.0,0.0,0.0,0.0,0.0,0.0,0.0,0.0,0.0,0.0,0.0,0.0,0.0,0.0,0.0,0.0,0.0,0.0,0.0507812686265,0.0234375074506,0.0781250298023,0.0,0.0,0.0,0.0,0.0,0.0,0.0,0.0,0.0
1583763060247829854,59,1583763058259198904,imu,-0.0220337063074,-0.00524902716279,0.239237900557,0.970960981161,0.0,0.0,0.0,0.0,0.0,0.0,0.0,0.0,0.0,0.0,0.0,0.0,0.0,0.0,0.0,0.0,0.0,0.0,0.0,0.0,0.0,-0.0312500111759,-0.0507812686265,0.0625000223517,0.0,0.0,0.0,0.0,0.0,0.0,0.0,0.0,0.0
1583763060247959727,60,1583763058359198904,imu,-0.0223388839513,-0.00494385138154,0.223046195355,0.974807875808,0.0,0.0,0.0,0.0,0.0,0.0,0.0,0.0,0.0,0.0,0.0,0.0,0.0,0.0,0.0,0.0,0.0,0.0,0.0,0.0,0.0,-0.0312500111759,0.101562537253,-0.0742187798023,0.0,0.0,0.0,0.0,0.0,0.0,0.0,0.0,0.0
1583763060248000614,61,1583763058460198904,imu,-0.0220337063074,-0.00494385138154,0.224566663079,0.974458728646,0.0,0.0,0.0,0.0,0.0,0.0,0.0,0.0,0.0,0.0,0.0,0.0,0.0,0.0,0.0,0.0,0.0,0.0,0.0,0.0,0.0,0.00390625139698,0.0,-0.0664062723517,0.0,0.0,0.0,0.0,0.0,0.0,0.0,0.0,0.0
1583763060248036594,62,1583763058559198904,imu,-0.0220947414637,-0.00482178060338,0.218056682533,0.975936106107,0.0,0.0,0.0,0.0,0.0,0.0,0.0,0.0,0.0,0.0,0.0,0.0,0.0,0.0,0.0,0.0,0.0,0.0,0.0,0.0,0.0,-0.0625000223517,0.0390625149012,-0.148437559605,0.0,0.0,0.0,0.0,0.0,0.0,0.0,0.0,0.0
1583763060248103245,63,1583763058659198904,imu,-0.0220337063074,-0.00482178060338,0.218420080331,0.975854839875,0.0,0.0,0.0,0.0,0.0,0.0,0.0,0.0,0.0,0.0,0.0,0.0,0.0,0.0,0.0,0.0,0.0,0.0,0.0,0.0,0.0,-0.00781250279397,0.0468750149012,0.0273437593132,0.0,0.0,0.0,0.0,0.0,0.0,0.0,0.0,0.0
1583763060248239252,64,1583763058759198904,imu,-0.0217285305262,-0.00427246419713,0.197184726218,0.980366351802,0.0,0.0,0.0,0.0,0.0,0.0,0.0,0.0,0.0,0.0,0.0,0.0,0.0,0.0,0.0,0.0,0.0,0.0,0.0,0.0,0.0,0.0351562611759,-0.0351562611759,0.0585937723517,0.0,0.0,0.0,0.0,0.0,0.0,0.0,0.0,0.0
1583763060248628895,65,1583763058859198904,imu,-0.0218506008387,-0.00372314709239,0.171516895317,0.985181178576,0.0,0.0,0.0,0.0,0.0,0.0,0.0,0.0,0.0,0.0,0.0,0.0,0.0,0.0,0.0,0.0,0.0,0.0,0.0,0.0,0.0,0.0507812686265,-0.00781250279397,0.0117187537253,0.0,0.0,0.0,0.0,0.0,0.0,0.0,0.0,0.0
1583763060248754937,66,1583763058960198904,imu,-0.0219116359949,-0.00317383045331,0.146784594783,0.989168480459,0.0,0.0,0.0,0.0,0.0,0.0,0.0,0.0,0.0,0.0,0.0,0.0,0.0,0.0,0.0,0.0,0.0,0.0,0.0,0.0,0.0,0.0156250055879,-0.00781250279397,0.0117187537253,0.0,0.0,0.0,0.0,0.0,0.0,0.0,0.0,0.0
1583763060248787214,67,1583763059059198904,imu,-0.0218506008387,-0.00378418248147,0.174223415117,0.984706149887,0.0,0.0,0.0,0.0,0.0,0.0,0.0,0.0,0.0,0.0,0.0,0.0,0.0,0.0,0.0,0.0,0.0,0.0,0.0,0.0,0.0,-0.00781250279397,-0.0429687649012,-0.0664062723517,0.0,0.0,0.0,0.0,0.0,0.0,0.0,0.0,0.0
1583763060248903738,68,1583763059159198904,imu,-0.0222168136388,-0.00292968959548,0.134643070632,0.990894163637,0.0,0.0,0.0,0.0,0.0,0.0,0.0,0.0,0.0,0.0,0.0,0.0,0.0,0.0,0.0,0.0,0.0,0.0,0.0,0.0,0.0,0.00781250279397,-0.253906339407,-0.0351562611759,0.0,0.0,0.0,0.0,0.0,0.0,0.0,0.0,0.0
1583763060249077753,69,1583763059261198904,imu,-0.0223999191076,-0.00280761928298,0.127310981774,0.991862850358,0.0,0.0,0.0,0.0,0.0,0.0,0.0,0.0,0.0,0.0,0.0,0.0,0.0,0.0,0.0,0.0,0.0,0.0,0.0,0.0,0.0,-0.140625044703,0.0390625149012,-0.105468787253,0.0,0.0,0.0,0.0,0.0,0.0,0.0,0.0,0.0
1583763060249162355,70,1583763059364934999,imu,-0.0227661300451,-0.00286865443923,0.127455017442,0.991844351967,0.0,0.0,0.0,0.0,0.0,0.0,0.0,0.0,0.0,0.0,0.0,0.0,0.0,0.0,0.0,0.0,0.0,0.0,0.0,0.0,0.0,-0.0546875186265,0.0390625149012,0.0351562611759,0.0,0.0,0.0,0.0,0.0,0.0,0.0,0.0,0.0
1583763060251509515,71,1583763059464934999,imu,-0.0230713058263,-0.00256347842515,0.112528723601,0.99364847223,0.0,0.0,0.0,0.0,0.0,0.0,0.0,0.0,0.0,0.0,0.0,0.0,0.0,0.0,0.0,0.0,0.0,0.0,0.0,0.0,0.0,0.0390625149012,-0.113281287253,-0.00390625139698,0.0,0.0,0.0,0.0,0.0,0.0,0.0,0.0,0.0
1583763060251552242,72,1583763059565934999,imu,-0.0236206222326,-0.00225830241106,0.0970388082193,0.995280598474,0.0,0.0,0.0,0.0,0.0,0.0,0.0,0.0,0.0,0.0,0.0,0.0,0.0,0.0,0.0,0.0,0.0,0.0,0.0,0.0,0.0,0.0,-0.00390625139698,0.0351562611759,0.0,0.0,0.0,0.0,0.0,0.0,0.0,0.0,0.0
1583763060251559883,73,1583763059664934999,imu,-0.0242309737951,-0.00244140811265,0.101957542855,0.99478875117,0.0,0.0,0.0,0.0,0.0,0.0,0.0,0.0,0.0,0.0,0.0,0.0,0.0,0.0,0.0,0.0,0.0,0.0,0.0,0.0,0.0,-0.0468750149012,-0.0742187798023,0.00390625139698,0.0,0.0,0.0,0.0,0.0,0.0,0.0,0.0,0.0
1583763060251569052,74,1583763059763934999,imu,-0.024780292064,-0.00238037272356,0.097174119148,0.995267396516,0.0,0.0,0.0,0.0,0.0,0.0,0.0,0.0,0.0,0.0,0.0,0.0,0.0,0.0,0.0,0.0,0.0,0.0,0.0,0.0,0.0,0.0,-0.0117187537253,0.0117187537253,0.0,0.0,0.0,0.0,0.0,0.0,0.0,0.0,0.0
1583763060251635492,75,1583763059864934999,imu,-0.0258178897202,-0.00207519670948,0.0815988689526,0.996665252021,0.0,0.0,0.0,0.0,0.0,0.0,0.0,0.0,0.0,0.0,0.0,0.0,0.0,0.0,0.0,0.0,0.0,0.0,0.0,0.0,0.0,0.0468750149012,0.0507812686265,0.0117187537253,0.0,0.0,0.0,0.0,0.0,0.0,0.0,0.0,0.0
1583763060251740226,76,1583763059963934999,imu,-0.026489276439,-0.00201416155323,0.0770722661192,0.9970255091,0.0,0.0,0.0,0.0,0.0,0.0,0.0,0.0,0.0,0.0,0.0,0.0,0.0,0.0,0.0,0.0,0.0,0.0,0.0,0.0,0.0,0.0,0.0507812686265,0.0820312798023,0.0,0.0,0.0,0.0,0.0,0.0,0.0,0.0,0.0
1583763060251752018,77,1583763060063934999,imu,-0.0269165225327,-0.00195312639698,0.0735161952555,0.997294023363,0.0,0.0,0.0,0.0,0.0,0.0,0.0,0.0,0.0,0.0,0.0,0.0,0.0,0.0,0.0,0.0,0.0,0.0,0.0,0.0,0.0,0.0390625149012,-0.0273437593132,0.0664062723517,0.0,0.0,0.0,0.0,0.0,0.0,0.0,0.0,0.0
1583763060334663395,78,1583763060163934999,imu,-0.0276489462703,-0.00207519670948,0.0759002511938,0.997115415521,0.0,0.0,0.0,0.0,0.0,0.0,0.0,0.0,0.0,0.0,0.0,0.0,0.0,0.0,0.0,0.0,0.0,0.0,0.0,0.0,0.0,-0.0859375298023,0.0507812686265,-0.0585937723517,0.0,0.0,0.0,0.0,0.0,0.0,0.0,0.0,0.0
1583763060434072520,79,1583763060264934999,imu,-0.0278930868953,-0.00231933756731,0.0840325774792,0.996463007804,0.0,0.0,0.0,0.0,0.0,0.0,0.0,0.0,0.0,0.0,0.0,0.0,0.0,0.0,0.0,0.0,0.0,0.0,0.0,0.0,0.0,0.0664062723517,-0.0898437798023,0.0273437593132,0.0,0.0,0.0,0.0,0.0,0.0,0.0,0.0,0.0
1583763060534551384,80,1583763060363934999,imu,-0.0281372275203,-0.00225830241106,0.0812938149395,0.996690180373,0.0,0.0,0.0,0.0,0.0,0.0,0.0,0.0,0.0,0.0,0.0,0.0,0.0,0.0,0.0,0.0,0.0,0.0,0.0,0.0,0.0,-0.0156250055879,0.117187544703,0.0585937723517,0.0,0.0,0.0,0.0,0.0,0.0,0.0,0.0,0.0
1583763060633972990,81,1583763060464934999,imu,-0.0281372275203,-0.00244140811265,0.0883249211569,0.996091716813,0.0,0.0,0.0,0.0,0.0,0.0,0.0,0.0,0.0,0.0,0.0,0.0,0.0,0.0,0.0,0.0,0.0,0.0,0.0,0.0,0.0,0.105468787253,-0.0429687649012,0.0117187537253,0.0,0.0,0.0,0.0,0.0,0.0,0.0,0.0,0.0
1583763060734260124,82,1583763060563934999,imu,-0.0279541220516,-0.0025024432689,0.0907146265477,0.995876928405,0.0,0.0,0.0,0.0,0.0,0.0,0.0,0.0,0.0,0.0,0.0,0.0,0.0,0.0,0.0,0.0,0.0,0.0,0.0,0.0,0.0,0.0156250055879,-0.00390625139698,-0.0273437593132,0.0,0.0,0.0,0.0,0.0,0.0,0.0,0.0,0.0
1583763060834743620,83,1583763060623934999,imu,-0.0276489462703,-0.00244140811265,0.0896726546801,0.995971292258,0.0,0.0,0.0,0.0,0.0,0.0,0.0,0.0,0.0,0.0,0.0,0.0,0.0,0.0,0.0,0.0,0.0,0.0,0.0,0.0,0.0,0.0156250055879,-0.00390625139698,-0.0273437593132,0.0,0.0,0.0,0.0,0.0,0.0,0.0,0.0,0.0
1583763060934333343,84,1583763060764934999,imu,-0.027221698314,-0.00268554873765,0.100263747671,0.994960894158,0.0,0.0,0.0,0.0,0.0,0.0,0.0,0.0,0.0,0.0,0.0,0.0,0.0,0.0,0.0,0.0,0.0,0.0,0.0,0.0,0.0,-0.0234375074506,-0.0117187537253,-0.0351562611759,0.0,0.0,0.0,0.0,0.0,0.0,0.0,0.0,0.0
1583763061035209049,85,1583763060863934999,imu,-0.026733417064,-0.00292968959548,0.111602556888,0.993752921654,0.0,0.0,0.0,0.0,0.0,0.0,0.0,0.0,0.0,0.0,0.0,0.0,0.0,0.0,0.0,0.0,0.0,0.0,0.0,0.0,0.0,-0.0156250055879,0.0585937723517,-0.0273437593132,0.0,0.0,0.0,0.0,0.0,0.0,0.0,0.0,0.0
1583763061134633168,86,1583763060963934999,imu,-0.026000995189,-0.00305175990798,0.119926298712,0.992782797432,0.0,0.0,0.0,0.0,0.0,0.0,0.0,0.0,0.0,0.0,0.0,0.0,0.0,0.0,0.0,0.0,0.0,0.0,0.0,0.0,0.0,0.0156250055879,-0.0429687649012,0.0507812686265,0.0,0.0,0.0,0.0,0.0,0.0,0.0,0.0,0.0
1583763061234052063,87,1583763061024934999,imu,-0.025024432689,-0.00323486560956,0.13183612043,0.991271525542,0.0,0.0,0.0,0.0,0.0,0.0,0.0,0.0,0.0,0.0,0.0,0.0,0.0,0.0,0.0,0.0,0.0,0.0,0.0,0.0,0.0,0.0156250055879,-0.0429687649012,0.0507812686265,0.0,0.0,0.0,0.0,0.0,0.0,0.0,0.0,0.0
1583763061333944527,88,1583763061124934999,imu,-0.0242309737951,-0.00366211193614,0.153894379756,0.988087303774,0.0,0.0,0.0,0.0,0.0,0.0,0.0,0.0,0.0,0.0,0.0,0.0,0.0,0.0,0.0,0.0,0.0,0.0,0.0,0.0,0.0,0.00781250279397,-0.0195312574506,-0.0351562611759,0.0,0.0,0.0,0.0,0.0,0.0,0.0,0.0,0.0
1583763061433891671,89,1583763061263934999,imu,-0.0233764816076,-0.00384521763772,0.168809781841,0.985648648127,0.0,0.0,0.0,0.0,0.0,0.0,0.0,0.0,0.0,0.0,0.0,0.0,0.0,0.0,0.0,0.0,0.0,0.0,0.0,0.0,0.0,0.0,0.0156250055879,0.0585937723517,0.0,0.0,0.0,0.0,0.0,0.0,0.0,0.0,0.0
1583763061534525682,90,1583763061363934999,imu,-0.0225219894201,-0.00415039341897,0.18891357854,0.981993716804,0.0,0.0,0.0,0.0,0.0,0.0,0.0,0.0,0.0,0.0,0.0,0.0,0.0,0.0,0.0,0.0,0.0,0.0,0.0,0.0,0.0,0.0664062723517,-0.0429687649012,0.00390625139698,0.0,0.0,0.0,0.0,0.0,0.0,0.0,0.0,0.0
1583763061633985460,91,1583763061464934999,imu,-0.0216064602137,-0.00469971029088,0.222463750489,0.974940962171,0.0,0.0,0.0,0.0,0.0,0.0,0.0,0.0,0.0,0.0,0.0,0.0,0.0,0.0,0.0,0.0,0.0,0.0,0.0,0.0,0.0,-0.0625000223517,0.0156250055879,-0.0351562611759,0.0,0.0,0.0,0.0,0.0,0.0,0.0,0.0,0.0
1583763061734085373,92,1583763061563934999,imu,-0.0208740383387,-0.00476074544713,0.234211219568,0.972185735664,0.0,0.0,0.0,0.0,0.0,0.0,0.0,0.0,0.0,0.0,0.0,0.0,0.0,0.0,0.0,0.0,0.0,0.0,0.0,0.0,0.0,0.0585937723517,0.0,0.0507812686265,0.0,0.0,0.0,0.0,0.0,0.0,0.0,0.0,0.0
1583763061834169356,93,1583763061664934999,imu,-0.0200805813074,-0.00494385138154,0.251552260039,0.967843716965,0.0,0.0,0.0,0.0,0.0,0.0,0.0,0.0,0.0,0.0,0.0,0.0,0.0,0.0,0.0,0.0,0.0,0.0,0.0,0.0,0.0,0.0585937723517,-0.0234375074506,0.00390625139698,0.0,0.0,0.0,0.0,0.0,0.0,0.0,0.0,0.0
1583763061934032301,94,1583763061763934999,imu,-0.0195923000574,-0.00518799200654,0.271052639976,0.962564525817,0.0,0.0,0.0,0.0,0.0,0.0,0.0,0.0,0.0,0.0,0.0,0.0,0.0,0.0,0.0,0.0,0.0,0.0,0.0,0.0,0.0,0.0117187537253,-0.105468787253,0.0429687649012,0.0,0.0,0.0,0.0,0.0,0.0,0.0,0.0,0.0
1583763062034422920,95,1583763061866934999,imu,-0.0187988411635,-0.00500488653779,0.291600760685,0.95654011749,0.0,0.0,0.0,0.0,0.0,0.0,0.0,0.0,0.0,0.0,0.0,0.0,0.0,0.0,0.0,0.0,0.0,0.0,0.0,0.0,0.0,-0.0546875186265,-0.320312619209,0.00390625139698,0.0,0.0,0.0,0.0,0.0,0.0,0.0,0.0,0.0
1583763062134201902,96,1583763061967217063,imu,-0.019165052101,-0.00439453450963,0.288048705417,0.957615759743,0.0,0.0,0.0,0.0,0.0,0.0,0.0,0.0,0.0,0.0,0.0,0.0,0.0,0.0,0.0,0.0,0.0,0.0,0.0,0.0,0.0,0.105468787253,-0.207031324506,0.0195312574506,0.0,0.0,0.0,0.0,0.0,0.0,0.0,0.0,0.0
1583763062233881663,97,1583763062066217063,imu,-0.019409192726,-0.00476074544713,0.298596148855,0.95437955756,0.0,0.0,0.0,0.0,0.0,0.0,0.0,0.0,0.0,0.0,0.0,0.0,0.0,0.0,0.0,0.0,0.0,0.0,0.0,0.0,0.0,0.105468787253,-0.144531294703,-0.0273437593132,0.0,0.0,0.0,0.0,0.0,0.0,0.0,0.0,0.0
1583763062334571037,98,1583763062167217063,imu,-0.0202026516199,-0.00524902716279,0.30981879763,0.950795620854,0.0,0.0,0.0,0.0,0.0,0.0,0.0,0.0,0.0,0.0,0.0,0.0,0.0,0.0,0.0,0.0,0.0,0.0,0.0,0.0,0.0,0.0195312574506,-0.0585937723517,0.101562537253,0.0,0.0,0.0,0.0,0.0,0.0,0.0,0.0,0.0
1583763062434578557,99,1583763062267217063,imu,-0.0211181789637,-0.00512695685029,0.302614244933,0.953113119605,0.0,0.0,0.0,0.0,0.0,0.0,0.0,0.0,0.0,0.0,0.0,0.0,0.0,0.0,0.0,0.0,0.0,0.0,0.0,0.0,0.0,0.113281287253,-0.0742187798023,-0.0195312574506,0.0,0.0,0.0,0.0,0.0,0.0,0.0,0.0,0.0
1583763062534061426,100,1583763062366217063,imu,-0.0217895656824,-0.00518799200654,0.289782421931,0.957092549308,0.0,0.0,0.0,0.0,0.0,0.0,0.0,0.0,0.0,0.0,0.0,0.0,0.0,0.0,0.0,0.0,0.0,0.0,0.0,0.0,0.0,-0.0117187537253,-0.0273437593132,-0.0117187537253,0.0,0.0,0.0,0.0,0.0,0.0,0.0,0.0,0.0
1583763062633902141,101,1583763062467217063,imu,-0.0223999191076,-0.00543213263154,0.290718822045,0.956808531791,0.0,0.0,0.0,0.0,0.0,0.0,0.0,0.0,0.0,0.0,0.0,0.0,0.0,0.0,0.0,0.0,0.0,0.0,0.0,0.0,0.0,-0.00390625139698,0.0273437593132,-0.00390625139698,0.0,0.0,0.0,0.0,0.0,0.0,0.0,0.0,0.0
1583763062734050472,102,1583763062567217063,imu,-0.0230713058263,-0.00543213263154,0.280053116061,0.959984506221,0.0,0.0,0.0,0.0,0.0,0.0,0.0,0.0,0.0,0.0,0.0,0.0,0.0,0.0,0.0,0.0,0.0,0.0,0.0,0.0,0.0,-0.00390625139698,0.273437589407,-0.0351562611759,0.0,0.0,0.0,0.0,0.0,0.0,0.0,0.0,0.0
1583763062834752784,103,1583763062666217063,imu,-0.0235595870763,-0.00543213263154,0.272181041069,0.962246060466,0.0,0.0,0.0,0.0,0.0,0.0,0.0,0.0,0.0,0.0,0.0,0.0,0.0,0.0,0.0,0.0,0.0,0.0,0.0,0.0,0.0,-0.00390625139698,0.187500059605,0.0117187537253,0.0,0.0,0.0,0.0,0.0,0.0,0.0,0.0,0.0
1583763062934390356,104,1583763062766217063,imu,-0.0236816573888,-0.00549316778779,0.273859251928,0.961769780214,0.0,0.0,0.0,0.0,0.0,0.0,0.0,0.0,0.0,0.0,0.0,0.0,0.0,0.0,0.0,0.0,0.0,0.0,0.0,0.0,0.0,-0.00390625139698,0.117187544703,0.0117187537253,0.0,0.0,0.0,0.0,0.0,0.0,0.0,0.0,0.0
1583763063034343051,105,1583763062826217063,imu,-0.0235595870763,-0.00549316778779,0.275327804626,0.961350404379,0.0,0.0,0.0,0.0,0.0,0.0,0.0,0.0,0.0,0.0,0.0,0.0,0.0,0.0,0.0,0.0,0.0,0.0,0.0,0.0,0.0,-0.00390625139698,0.117187544703,0.0117187537253,0.0,0.0,0.0,0.0,0.0,0.0,0.0,0.0,0.0
1583763063134099240,106,1583763062926217063,imu,-0.0232544112951,-0.00549316778779,0.279060259754,0.960273591965,0.0,0.0,0.0,0.0,0.0,0.0,0.0,0.0,0.0,0.0,0.0,0.0,0.0,0.0,0.0,0.0,0.0,0.0,0.0,0.0,0.0,-0.00390625139698,0.0312500111759,0.00390625139698,0.0,0.0,0.0,0.0,0.0,0.0,0.0,0.0,0.0
1583763063234047522,107,1583763063027217063,imu,-0.0228271652013,-0.00549316778779,0.284436385398,0.958694916364,0.0,0.0,0.0,0.0,0.0,0.0,0.0,0.0,0.0,0.0,0.0,0.0,0.0,0.0,0.0,0.0,0.0,0.0,0.0,0.0,0.0,-0.00390625139698,0.0546875186265,0.00390625139698,0.0,0.0,0.0,0.0,0.0,0.0,0.0,0.0,0.0
1583763063334154989,108,1583763063166217063,imu,-0.0223388839513,-0.0055542034097,0.293089263304,0.95608508185,0.0,0.0,0.0,0.0,0.0,0.0,0.0,0.0,0.0,0.0,0.0,0.0,0.0,0.0,0.0,0.0,0.0,0.0,0.0,0.0,0.0,-0.0117187537253,-0.00781250279397,0.0117187537253,0.0,0.0,0.0,0.0,0.0,0.0,0.0,0.0,0.0
1583763063434005993,109,1583763063266217063,imu,-0.0220337063074,-0.00561523856595,0.299508672668,0.954093577694,0.0,0.0,0.0,0.0,0.0,0.0,0.0,0.0,0.0,0.0,0.0,0.0,0.0,0.0,0.0,0.0,0.0,0.0,0.0,0.0,0.0,-0.0117187537253,0.0312500111759,0.0117187537253,0.0,0.0,0.0,0.0,0.0,0.0,0.0,0.0,0.0
1583763063534136158,110,1583763063367217063,imu,-0.0217285305262,-0.00561523856595,0.303749389177,0.952751965925,0.0,0.0,0.0,0.0,0.0,0.0,0.0,0.0,0.0,0.0,0.0,0.0,0.0,0.0,0.0,0.0,0.0,0.0,0.0,0.0,0.0,-0.0117187537253,-0.00781250279397,-0.0273437593132,0.0,0.0,0.0,0.0,0.0,0.0,0.0,0.0,0.0
1583763063633999649,111,1583763063427217063,imu,-0.0214843899012,-0.0056762737222,0.30953627599,0.950887634711,0.0,0.0,0.0,0.0,0.0,0.0,0.0,0.0,0.0,0.0,0.0,0.0,0.0,0.0,0.0,0.0,0.0,0.0,0.0,0.0,0.0,-0.0117187537253,-0.00781250279397,-0.0273437593132,0.0,0.0,0.0,0.0,0.0,0.0,0.0,0.0,0.0
1583763063734124146,112,1583763063566217063,imu,-0.0211181789637,-0.00573730887845,0.317216881738,0.948353019682,0.0,0.0,0.0,0.0,0.0,0.0,0.0,0.0,0.0,0.0,0.0,0.0,0.0,0.0,0.0,0.0,0.0,0.0,0.0,0.0,0.0,-0.0117187537253,0.0234375074506,0.0117187537253,0.0,0.0,0.0,0.0,0.0,0.0,0.0,0.0,0.0
1583763063834452060,113,1583763063626217063,imu,-0.0207519680262,-0.00573730887845,0.322740586243,0.946487461085,0.0,0.0,0.0,0.0,0.0,0.0,0.0,0.0,0.0,0.0,0.0,0.0,0.0,0.0,0.0,0.0,0.0,0.0,0.0,0.0,0.0,-0.0117187537253,0.0234375074506,0.0117187537253,0.0,0.0,0.0,0.0,0.0,0.0,0.0,0.0,0.0
1583763063933923768,114,1583763063766217063,imu,-0.0203857570887,-0.0057983440347,0.329731276448,0.944074830367,0.0,0.0,0.0,0.0,0.0,0.0,0.0,0.0,0.0,0.0,0.0,0.0,0.0,0.0,0.0,0.0,0.0,0.0,0.0,0.0,0.0,-0.0117187537253,0.0156250055879,0.0117187537253,0.0,0.0,0.0,0.0,0.0,0.0,0.0,0.0,0.0
1583763064033773239,115,1583763063826217063,imu,-0.0201416164637,-0.00585937919095,0.335991305413,0.941865087306,0.0,0.0,0.0,0.0,0.0,0.0,0.0,0.0,0.0,0.0,0.0,0.0,0.0,0.0,0.0,0.0,0.0,0.0,0.0,0.0,0.0,-0.0117187537253,0.0156250055879,0.0117187537253,0.0,0.0,0.0,0.0,0.0,0.0,0.0,0.0,0.0
1583763064134708547,116,1583763063966217063,imu,-0.0199585109949,-0.0057983440347,0.337658101597,0.941268827927,0.0,0.0,0.0,0.0,0.0,0.0,0.0,0.0,0.0,0.0,0.0,0.0,0.0,0.0,0.0,0.0,0.0,0.0,0.0,0.0,0.0,-0.0468750149012,-0.0234375074506,0.0117187537253,0.0,0.0,0.0,0.0,0.0,0.0,0.0,0.0,0.0
1583763064233747856,117,1583763064067217063,imu,-0.0197754055262,-0.00573730887845,0.338277690516,0.941046334725,0.0,0.0,0.0,0.0,0.0,0.0,0.0,0.0,0.0,0.0,0.0,0.0,0.0,0.0,0.0,0.0,0.0,0.0,0.0,0.0,0.0,0.00390625139698,-0.0234375074506,0.00390625139698,0.0,0.0,0.0,0.0,0.0,0.0,0.0,0.0,0.0
1583763064334584186,118,1583763064167217063,imu,-0.0195312649012,-0.00561523856595,0.33751715623,0.941319376859,0.0,0.0,0.0,0.0,0.0,0.0,0.0,0.0,0.0,0.0,0.0,0.0,0.0,0.0,0.0,0.0,0.0,0.0,0.0,0.0,0.0,0.00390625139698,0.0156250055879,0.00390625139698,0.0,0.0,0.0,0.0,0.0,0.0,0.0,0.0,0.0
1583763064434027332,119,1583763064267217063,imu,-0.0192871224135,-0.0055542034097,0.338057524847,0.941125448543,0.0,0.0,0.0,0.0,0.0,0.0,0.0,0.0,0.0,0.0,0.0,0.0,0.0,0.0,0.0,0.0,0.0,0.0,0.0,0.0,0.0,0.00390625139698,0.0156250055879,0.00390625139698,0.0,0.0,0.0,0.0,0.0,0.0,0.0,0.0,0.0
1583763064533948579,120,1583763064366217063,imu,-0.0190429817885,-0.00561523856595,0.344709747318,0.938709321411,0.0,0.0,0.0,0.0,0.0,0.0,0.0,0.0,0.0,0.0,0.0,0.0,0.0,0.0,0.0,0.0,0.0,0.0,0.0,0.0,0.0,-0.00390625139698,0.00781250279397,-0.0273437593132,0.0,0.0,0.0,0.0,0.0,0.0,0.0,0.0,0.0
1583763064633924535,121,1583763064473635990,imu,-0.0187988411635,-0.00561523856595,0.350164107993,0.93668836732,0.0,0.0,0.0,0.0,0.0,0.0,0.0,0.0,0.0,0.0,0.0,0.0,0.0,0.0,0.0,0.0,0.0,0.0,0.0,0.0,0.0,-0.00390625139698,0.00781250279397,0.0117187537253,0.0,0.0,0.0,0.0,0.0,0.0,0.0,0.0,0.0
1583763064733956606,122,1583763064573635990,imu,-0.018676770851,-0.0056762737222,0.354808604441,0.93493895748,0.0,0.0,0.0,0.0,0.0,0.0,0.0,0.0,0.0,0.0,0.0,0.0,0.0,0.0,0.0,0.0,0.0,0.0,0.0,0.0,0.0,-0.00390625139698,0.00781250279397,0.0117187537253,0.0,0.0,0.0,0.0,0.0,0.0,0.0,0.0,0.0
1583763064834217120,123,1583763064673635990,imu,-0.0184936653823,-0.00561523856595,0.355658560635,0.934615957625,0.0,0.0,0.0,0.0,0.0,0.0,0.0,0.0,0.0,0.0,0.0,0.0,0.0,0.0,0.0,0.0,0.0,0.0,0.0,0.0,0.0,-0.00390625139698,0.0,-0.0273437593132,0.0,0.0,0.0,0.0,0.0,0.0,0.0,0.0,0.0
1583763064933965149,124,1583763064673635990,imu,-0.0184936653823,-0.00561523856595,0.714440156589,0.699696550408,0.0,0.0,0.0,0.0,0.0,0.0,0.0,0.0,0.0,0.0,0.0,0.0,0.0,0.0,0.0,0.0,0.0,0.0,0.0,0.0,0.0,-0.00390625139698,0.0,-0.0273437593132,0.0,0.0,0.0,0.0,0.0,0.0,0.0,0.0,0.0
1583763065034307704,125,1583763064873635990,imu,-0.0182495247573,-0.0056762737222,0.361446427417,0.932392878623,0.0,0.0,0.0,0.0,0.0,0.0,0.0,0.0,0.0,0.0,0.0,0.0,0.0,0.0,0.0,0.0,0.0,0.0,0.0,0.0,0.0,-0.00390625139698,0.0156250055879,-0.0273437593132,0.0,0.0,0.0,0.0,0.0,0.0,0.0,0.0,0.0
1583763065133838982,126,1583763064974635990,imu,-0.018188489601,-0.00561523856595,0.360089117307,0.932917910428,0.0,0.0,0.0,0.0,0.0,0.0,0.0,0.0,0.0,0.0,0.0,0.0,0.0,0.0,0.0,0.0,0.0,0.0,0.0,0.0,0.0,0.00390625139698,-0.0156250055879,0.0117187537253,0.0,0.0,0.0,0.0,0.0,0.0,0.0,0.0,0.0
1583763065234202897,127,1583763065072635990,imu,-0.0181274544448,-0.0055542034097,0.358723268886,0.933443954589,0.0,0.0,0.0,0.0,0.0,0.0,0.0,0.0,0.0,0.0,0.0,0.0,0.0,0.0,0.0,0.0,0.0,0.0,0.0,0.0,0.0,0.00390625139698,0.0234375074506,0.0117187537253,0.0,0.0,0.0,0.0,0.0,0.0,0.0,0.0,0.0
1583763065334224257,128,1583763065174635990,imu,-0.0181274544448,-0.0055542034097,0.359937365935,0.93297646948,0.0,0.0,0.0,0.0,0.0,0.0,0.0,0.0,0.0,0.0,0.0,0.0,0.0,0.0,0.0,0.0,0.0,0.0,0.0,0.0,0.0,0.00390625139698,0.0156250055879,0.0117187537253,0.0,0.0,0.0,0.0,0.0,0.0,0.0,0.0,0.0
1583763065433895437,129,1583763065272635990,imu,-0.0180664192885,-0.0055542034097,0.361083462164,0.932533502536,0.0,0.0,0.0,0.0,0.0,0.0,0.0,0.0,0.0,0.0,0.0,0.0,0.0,0.0,0.0,0.0,0.0,0.0,0.0,0.0,0.0,-0.00390625139698,0.0156250055879,0.00390625139698,0.0,0.0,0.0,0.0,0.0,0.0,0.0,0.0,0.0
1583763065534025175,130,1583763065374635990,imu,-0.0180053841323,-0.00561523856595,0.364736321346,0.931110850485,0.0,0.0,0.0,0.0,0.0,0.0,0.0,0.0,0.0,0.0,0.0,0.0,0.0,0.0,0.0,0.0,0.0,0.0,0.0,0.0,0.0,-0.0117187537253,0.0156250055879,-0.0273437593132,0.0,0.0,0.0,0.0,0.0,0.0,0.0,0.0,0.0
1583763065633727963,131,1583763065433635990,imu,-0.0178833138198,-0.0055542034097,0.364556022107,0.931181457475,0.0,0.0,0.0,0.0,0.0,0.0,0.0,0.0,0.0,0.0,0.0,0.0,0.0,0.0,0.0,0.0,0.0,0.0,0.0,0.0,0.0,-0.0117187537253,0.0156250055879,-0.0273437593132,0.0,0.0,0.0,0.0,0.0,0.0,0.0,0.0,0.0
1583763065734583721,132,1583763065572635990,imu,-0.0177612435073,-0.0055542034097,0.366899885271,0.930260433528,0.0,0.0,0.0,0.0,0.0,0.0,0.0,0.0,0.0,0.0,0.0,0.0,0.0,0.0,0.0,0.0,0.0,0.0,0.0,0.0,0.0,0.00390625139698,-0.0312500111759,0.0195312574506,0.0,0.0,0.0,0.0,0.0,0.0,0.0,0.0,0.0
1583763065834019569,133,1583763065675635990,imu,-0.0177612435073,-0.00549316778779,0.364379594715,0.931250509238,0.0,0.0,0.0,0.0,0.0,0.0,0.0,0.0,0.0,0.0,0.0,0.0,0.0,0.0,0.0,0.0,0.0,0.0,0.0,0.0,0.0,0.00390625139698,0.0156250055879,0.0117187537253,0.0,0.0,0.0,0.0,0.0,0.0,0.0,0.0,0.0
1583763065934161494,134,1583763065774635990,imu,-0.0177612435073,-0.00543213263154,0.36185021175,0.932236249165,0.0,0.0,0.0,0.0,0.0,0.0,0.0,0.0,0.0,0.0,0.0,0.0,0.0,0.0,0.0,0.0,0.0,0.0,0.0,0.0,0.0,-0.00390625139698,0.0156250055879,0.0117187537253,0.0,0.0,0.0,0.0,0.0,0.0,0.0,0.0,0.0
1583763066034018322,135,1583763065873635990,imu,-0.0178222786635,-0.0055542034097,0.365725053849,0.930722936747,0.0,0.0,0.0,0.0,0.0,0.0,0.0,0.0,0.0,0.0,0.0,0.0,0.0,0.0,0.0,0.0,0.0,0.0,0.0,0.0,0.0,-0.00390625139698,0.0156250055879,0.00390625139698,0.0,0.0,0.0,0.0,0.0,0.0,0.0,0.0,0.0
1583763066133922376,136,1583763065973635990,imu,-0.0177612435073,-0.0055542034097,0.366899885271,0.930260433528,0.0,0.0,0.0,0.0,0.0,0.0,0.0,0.0,0.0,0.0,0.0,0.0,0.0,0.0,0.0,0.0,0.0,0.0,0.0,0.0,0.0,-0.00390625139698,0.00781250279397,0.00390625139698,0.0,0.0,0.0,0.0,0.0,0.0,0.0,0.0,0.0
1583763066233925777,137,1583763066074635990,imu,-0.0176391731948,-0.0055542034097,0.369267051614,0.929323326185,0.0,0.0,0.0,0.0,0.0,0.0,0.0,0.0,0.0,0.0,0.0,0.0,0.0,0.0,0.0,0.0,0.0,0.0,0.0,0.0,0.0,-0.00390625139698,0.00781250279397,0.00390625139698,0.0,0.0,0.0,0.0,0.0,0.0,0.0,0.0,0.0
1583763066334189439,138,1583763066173635990,imu,-0.0176391731948,-0.00561523856595,0.37178311765,0.928319618144,0.0,0.0,0.0,0.0,0.0,0.0,0.0,0.0,0.0,0.0,0.0,0.0,0.0,0.0,0.0,0.0,0.0,0.0,0.0,0.0,0.0,-0.0117187537253,-0.0312500111759,0.00390625139698,0.0,0.0,0.0,0.0,0.0,0.0,0.0,0.0,0.0
1583763066434395472,139,1583763066274635990,imu,-0.0175781380385,-0.00561523856595,0.372977908453,0.92784022321,0.0,0.0,0.0,0.0,0.0,0.0,0.0,0.0,0.0,0.0,0.0,0.0,0.0,0.0,0.0,0.0,0.0,0.0,0.0,0.0,0.0,-0.00390625139698,-0.0390625149012,0.00390625139698,0.0,0.0,0.0,0.0,0.0,0.0,0.0,0.0,0.0
1583763066534156587,140,1583763066373635990,imu,-0.0176391731948,-0.00561523856595,0.37178311765,0.928319618144,0.0,0.0,0.0,0.0,0.0,0.0,0.0,0.0,0.0,0.0,0.0,0.0,0.0,0.0,0.0,0.0,0.0,0.0,0.0,0.0,0.0,-0.00390625139698,-0.0234375074506,0.00390625139698,0.0,0.0,0.0,0.0,0.0,0.0,0.0,0.0,0.0
1583763066634393145,141,1583763066473635990,imu,-0.0177612435073,-0.00561523856595,0.369411059414,0.9292660917,0.0,0.0,0.0,0.0,0.0,0.0,0.0,0.0,0.0,0.0,0.0,0.0,0.0,0.0,0.0,0.0,0.0,0.0,0.0,0.0,0.0,-0.00390625139698,0.0156250055879,-0.0351562611759,0.0,0.0,0.0,0.0,0.0,0.0,0.0,0.0,0.0
1583763066734481706,142,1583763066573635990,imu,-0.017700208351,-0.0055542034097,0.366843973625,0.930282483451,0.0,0.0,0.0,0.0,0.0,0.0,0.0,0.0,0.0,0.0,0.0,0.0,0.0,0.0,0.0,0.0,0.0,0.0,0.0,0.0,0.0,-0.00390625139698,0.0156250055879,0.0117187537253,0.0,0.0,0.0,0.0,0.0,0.0,0.0,0.0,0.0
1583763066834100942,143,1583763066633635990,imu,-0.0176391731948,-0.0055542034097,0.369267051614,0.929323326185,0.0,0.0,0.0,0.0,0.0,0.0,0.0,0.0,0.0,0.0,0.0,0.0,0.0,0.0,0.0,0.0,0.0,0.0,0.0,0.0,0.0,-0.00390625139698,0.0156250055879,0.0117187537253,0.0,0.0,0.0,0.0,0.0,0.0,0.0,0.0,0.0
1583763066934366109,144,1583763066733635990,imu,-0.0176391731948,-0.0055542034097,0.368027337578,0.929814970193,0.0,0.0,0.0,0.0,0.0,0.0,0.0,0.0,0.0,0.0,0.0,0.0,0.0,0.0,0.0,0.0,0.0,0.0,0.0,0.0,0.0,-0.00390625139698,0.00781250279397,0.0117187537253,0.0,0.0,0.0,0.0,0.0,0.0,0.0,0.0,0.0
1583763067034056587,145,1583763066833635990,imu,-0.0176391731948,-0.0055542034097,0.369267051614,0.929323326185,0.0,0.0,0.0,0.0,0.0,0.0,0.0,0.0,0.0,0.0,0.0,0.0,0.0,0.0,0.0,0.0,0.0,0.0,0.0,0.0,0.0,-0.00390625139698,0.00781250279397,0.0117187537253,0.0,0.0,0.0,0.0,0.0,0.0,0.0,0.0,0.0
1583763067134001320,146,1583763066975635990,imu,-0.0177612435073,-0.0055542034097,0.368140152898,0.929770309176,0.0,0.0,0.0,0.0,0.0,0.0,0.0,0.0,0.0,0.0,0.0,0.0,0.0,0.0,0.0,0.0,0.0,0.0,0.0,0.0,0.0,-0.00390625139698,-0.0156250055879,0.0117187537253,0.0,0.0,0.0,0.0,0.0,0.0,0.0,0.0,0.0
1583763067234100696,147,1583763067076732015,imu,-0.0178222786635,-0.00561523856595,0.36946048237,0.929246443075,0.0,0.0,0.0,0.0,0.0,0.0,0.0,0.0,0.0,0.0,0.0,0.0,0.0,0.0,0.0,0.0,0.0,0.0,0.0,0.0,0.0,-0.00390625139698,0.0312500111759,0.0117187537253,0.0,0.0,0.0,0.0,0.0,0.0,0.0,0.0,0.0
1583763067333970977,148,1583763067178732015,imu,-0.0178222786635,-0.00561523856595,0.368233741065,0.929733247734,0.0,0.0,0.0,0.0,0.0,0.0,0.0,0.0,0.0,0.0,0.0,0.0,0.0,0.0,0.0,0.0,0.0,0.0,0.0,0.0,0.0,-0.00390625139698,-0.0156250055879,0.00390625139698,0.0,0.0,0.0,0.0,0.0,0.0,0.0,0.0,0.0
1583763067434153175,149,1583763067277732015,imu,-0.0178833138198,-0.0055542034097,0.364556022107,0.931181457475,0.0,0.0,0.0,0.0,0.0,0.0,0.0,0.0,0.0,0.0,0.0,0.0,0.0,0.0,0.0,0.0,0.0,0.0,0.0,0.0,0.0,-0.00390625139698,-0.00781250279397,0.00390625139698,0.0,0.0,0.0,0.0,0.0,0.0,0.0,0.0,0.0
1583763067534042175,150,1583763067378732015,imu,-0.0180053841323,-0.0055542034097,0.363462839166,0.931608697118,0.0,0.0,0.0,0.0,0.0,0.0,0.0,0.0,0.0,0.0,0.0,0.0,0.0,0.0,0.0,0.0,0.0,0.0,0.0,0.0,0.0,-0.00390625139698,-0.00781250279397,0.00390625139698,0.0,0.0,0.0,0.0,0.0,0.0,0.0,0.0,0.0
1583763067634148823,151,1583763067477732015,imu,-0.0180664192885,-0.00561523856595,0.364796284936,0.931087359219,0.0,0.0,0.0,0.0,0.0,0.0,0.0,0.0,0.0,0.0,0.0,0.0,0.0,0.0,0.0,0.0,0.0,0.0,0.0,0.0,0.0,-0.0390625149012,0.0,0.00390625139698,0.0,0.0,0.0,0.0,0.0,0.0,0.0,0.0,0.0
1583763067735702496,152,1583763067577732015,imu,-0.018188489601,-0.0055542034097,0.360014851268,0.932946572354,0.0,0.0,0.0,0.0,0.0,0.0,0.0,0.0,0.0,0.0,0.0,0.0,0.0,0.0,0.0,0.0,0.0,0.0,0.0,0.0,0.0,0.00390625139698,0.0,0.00390625139698,0.0,0.0,0.0,0.0,0.0,0.0,0.0,0.0,0.0
1583763067834176970,153,1583763067677732015,imu,-0.0182495247573,-0.00549316778779,0.357618808442,0.933867650071,0.0,0.0,0.0,0.0,0.0,0.0,0.0,0.0,0.0,0.0,0.0,0.0,0.0,0.0,0.0,0.0,0.0,0.0,0.0,0.0,0.0,-0.00390625139698,0.0312500111759,-0.0351562611759,0.0,0.0,0.0,0.0,0.0,0.0,0.0,0.0,0.0
1583763067934266430,154,1583763067737732015,imu,-0.018188489601,-0.0055542034097,0.361239678071,0.932472999602,0.0,0.0,0.0,0.0,0.0,0.0,0.0,0.0,0.0,0.0,0.0,0.0,0.0,0.0,0.0,0.0,0.0,0.0,0.0,0.0,0.0,-0.00390625139698,0.0312500111759,-0.0351562611759,0.0,0.0,0.0,0.0,0.0,0.0,0.0,0.0,0.0
1583763068033983172,155,1583763067876732015,imu,-0.018188489601,-0.00561523856595,0.364934658255,0.931033133247,0.0,0.0,0.0,0.0,0.0,0.0,0.0,0.0,0.0,0.0,0.0,0.0,0.0,0.0,0.0,0.0,0.0,0.0,0.0,0.0,0.0,-0.00390625139698,0.0312500111759,0.0195312574506,0.0,0.0,0.0,0.0,0.0,0.0,0.0,0.0,0.0
1583763068133986361,156,1583763067976732015,imu,-0.0182495247573,-0.00561523856595,0.362569347623,0.931956795224,0.0,0.0,0.0,0.0,0.0,0.0,0.0,0.0,0.0,0.0,0.0,0.0,0.0,0.0,0.0,0.0,0.0,0.0,0.0,0.0,0.0,-0.00390625139698,0.0234375074506,0.0117187537253,0.0,0.0,0.0,0.0,0.0,0.0,0.0,0.0,0.0
1583763068233965112,157,1583763068077732015,imu,-0.0183105599135,-0.00561523856595,0.36143115596,0.932398798531,0.0,0.0,0.0,0.0,0.0,0.0,0.0,0.0,0.0,0.0,0.0,0.0,0.0,0.0,0.0,0.0,0.0,0.0,0.0,0.0,0.0,-0.00390625139698,-0.0156250055879,0.0117187537253,0.0,0.0,0.0,0.0,0.0,0.0,0.0,0.0,0.0
1583763068334270071,158,1583763068178732015,imu,-0.0183105599135,-0.00561523856595,0.36143115596,0.932398798531,0.0,0.0,0.0,0.0,0.0,0.0,0.0,0.0,0.0,0.0,0.0,0.0,0.0,0.0,0.0,0.0,0.0,0.0,0.0,0.0,0.0,-0.00390625139698,0.0234375074506,-0.0273437593132,0.0,0.0,0.0,0.0,0.0,0.0,0.0,0.0,0.0
1583763068433994033,159,1583763068276732015,imu,-0.0183105599135,-0.00561523856595,0.362646484967,0.931926781964,0.0,0.0,0.0,0.0,0.0,0.0,0.0,0.0,0.0,0.0,0.0,0.0,0.0,0.0,0.0,0.0,0.0,0.0,0.0,0.0,0.0,-0.00390625139698,-0.0156250055879,-0.0273437593132,0.0,0.0,0.0,0.0,0.0,0.0,0.0,0.0,0.0
1583763068534718142,160,1583763068377732015,imu,-0.0183105599135,-0.0056762737222,0.365096472373,0.930969691161,0.0,0.0,0.0,0.0,0.0,0.0,0.0,0.0,0.0,0.0,0.0,0.0,0.0,0.0,0.0,0.0,0.0,0.0,0.0,0.0,0.0,-0.00390625139698,0.0312500111759,0.0195312574506,0.0,0.0,0.0,0.0,0.0,0.0,0.0,0.0,0.0
1583763068633865053,161,1583763068477732015,imu,-0.0183715950698,-0.0056762737222,0.365167241965,0.930941934492,0.0,0.0,0.0,0.0,0.0,0.0,0.0,0.0,0.0,0.0,0.0,0.0,0.0,0.0,0.0,0.0,0.0,0.0,0.0,0.0,0.0,-0.00390625139698,-0.0156250055879,-0.0195312574506,0.0,0.0,0.0,0.0,0.0,0.0,0.0,0.0,0.0
1583763068734059864,162,1583763068577732015,imu,-0.0183105599135,-0.00573730887845,0.368740006072,0.929532574965,0.0,0.0,0.0,0.0,0.0,0.0,0.0,0.0,0.0,0.0,0.0,0.0,0.0,0.0,0.0,0.0,0.0,0.0,0.0,0.0,0.0,-0.00390625139698,0.0234375074506,0.0195312574506,0.0,0.0,0.0,0.0,0.0,0.0,0.0,0.0,0.0
1583763068834087790,163,1583763068637732015,imu,-0.0183105599135,-0.00573730887845,0.367537892513,0.93000854704,0.0,0.0,0.0,0.0,0.0,0.0,0.0,0.0,0.0,0.0,0.0,0.0,0.0,0.0,0.0,0.0,0.0,0.0,0.0,0.0,0.0,-0.00390625139698,0.0234375074506,0.0195312574506,0.0,0.0,0.0,0.0,0.0,0.0,0.0,0.0,0.0
1583763068934151819,164,1583763068777732015,imu,-0.018188489601,-0.00573730887845,0.369835471915,0.929097262784,0.0,0.0,0.0,0.0,0.0,0.0,0.0,0.0,0.0,0.0,0.0,0.0,0.0,0.0,0.0,0.0,0.0,0.0,0.0,0.0,0.0,-0.00390625139698,0.0234375074506,-0.0273437593132,0.0,0.0,0.0,0.0,0.0,0.0,0.0,0.0,0.0
1583763069034213824,165,1583763068837732015,imu,-0.018188489601,-0.00573730887845,0.369835471915,0.929097262784,0.0,0.0,0.0,0.0,0.0,0.0,0.0,0.0,0.0,0.0,0.0,0.0,0.0,0.0,0.0,0.0,0.0,0.0,0.0,0.0,0.0,-0.00390625139698,0.0234375074506,-0.0273437593132,0.0,0.0,0.0,0.0,0.0,0.0,0.0,0.0,0.0
1583763069134081208,166,1583763068977732015,imu,-0.0181274544448,-0.00573730887845,0.370992532176,0.92863584955,0.0,0.0,0.0,0.0,0.0,0.0,0.0,0.0,0.0,0.0,0.0,0.0,0.0,0.0,0.0,0.0,0.0,0.0,0.0,0.0,0.0,-0.00390625139698,-0.0234375074506,-0.0273437593132,0.0,0.0,0.0,0.0,0.0,0.0,0.0,0.0,0.0
1583763069234148868,167,1583763069076732015,imu,-0.0181274544448,-0.00573730887845,0.370992532176,0.92863584955,0.0,0.0,0.0,0.0,0.0,0.0,0.0,0.0,0.0,0.0,0.0,0.0,0.0,0.0,0.0,0.0,0.0,0.0,0.0,0.0,0.0,-0.00390625139698,-0.0234375074506,0.0195312574506,0.0,0.0,0.0,0.0,0.0,0.0,0.0,0.0,0.0
1583763069333947021,168,1583763069177732015,imu,-0.0181274544448,-0.0056762737222,0.36854416619,0.929610239599,0.0,0.0,0.0,0.0,0.0,0.0,0.0,0.0,0.0,0.0,0.0,0.0,0.0,0.0,0.0,0.0,0.0,0.0,0.0,0.0,0.0,-0.00390625139698,-0.0234375074506,0.0117187537253,0.0,0.0,0.0,0.0,0.0,0.0,0.0,0.0,0.0
1583763069434272166,169,1583763069276732015,imu,-0.0181274544448,-0.00573730887845,0.370992532176,0.92863584955,0.0,0.0,0.0,0.0,0.0,0.0,0.0,0.0,0.0,0.0,0.0,0.0,0.0,0.0,0.0,0.0,0.0,0.0,0.0,0.0,0.0,-0.00390625139698,0.0156250055879,-0.0273437593132,0.0,0.0,0.0,0.0,0.0,0.0,0.0,0.0,0.0
1583763069534789966,170,1583763069337732015,imu,-0.0180664192885,-0.0057983440347,0.375800541954,0.926700573361,0.0,0.0,0.0,0.0,0.0,0.0,0.0,0.0,0.0,0.0,0.0,0.0,0.0,0.0,0.0,0.0,0.0,0.0,0.0,0.0,0.0,-0.00390625139698,0.0156250055879,-0.0273437593132,0.0,0.0,0.0,0.0,0.0,0.0,0.0,0.0,0.0
1583763069633925699,171,1583763069477732015,imu,-0.0180664192885,-0.0057983440347,0.375800541954,0.926700573361,0.0,0.0,0.0,0.0,0.0,0.0,0.0,0.0,0.0,0.0,0.0,0.0,0.0,0.0,0.0,0.0,0.0,0.0,0.0,0.0,0.0,-0.00390625139698,0.0156250055879,0.0117187537253,0.0,0.0,0.0,0.0,0.0,0.0,0.0,0.0,0.0
1583763069734125021,172,1583763069582429082,imu,-0.0180053841323,-0.00573730887845,0.374539864448,0.927210812027,0.0,0.0,0.0,0.0,0.0,0.0,0.0,0.0,0.0,0.0,0.0,0.0,0.0,0.0,0.0,0.0,0.0,0.0,0.0,0.0,0.0,-0.00390625139698,0.0156250055879,0.0117187537253,0.0,0.0,0.0,0.0,0.0,0.0,0.0,0.0,0.0
1583763069833989790,173,1583763069641429082,imu,-0.017944348976,-0.00573730887845,0.374497075513,0.927228095148,0.0,0.0,0.0,0.0,0.0,0.0,0.0,0.0,0.0,0.0,0.0,0.0,0.0,0.0,0.0,0.0,0.0,0.0,0.0,0.0,0.0,-0.00390625139698,0.0156250055879,0.0117187537253,0.0,0.0,0.0,0.0,0.0,0.0,0.0,0.0,0.0
1583763069934745926,174,1583763069782429082,imu,-0.017944348976,-0.0056762737222,0.373271766302,0.927722042684,0.0,0.0,0.0,0.0,0.0,0.0,0.0,0.0,0.0,0.0,0.0,0.0,0.0,0.0,0.0,0.0,0.0,0.0,0.0,0.0,0.0,-0.00390625139698,-0.0234375074506,0.00390625139698,0.0,0.0,0.0,0.0,0.0,0.0,0.0,0.0,0.0
1583763070033991774,175,1583763069882429082,imu,-0.0180053841323,-0.00573730887845,0.374539864448,0.927210812027,0.0,0.0,0.0,0.0,0.0,0.0,0.0,0.0,0.0,0.0,0.0,0.0,0.0,0.0,0.0,0.0,0.0,0.0,0.0,0.0,0.0,-0.00390625139698,0.0234375074506,0.00390625139698,0.0,0.0,0.0,0.0,0.0,0.0,0.0,0.0,0.0
1583763070134229352,176,1583763069981429082,imu,-0.0180053841323,-0.0056762737222,0.370870444494,0.928684614603,0.0,0.0,0.0,0.0,0.0,0.0,0.0,0.0,0.0,0.0,0.0,0.0,0.0,0.0,0.0,0.0,0.0,0.0,0.0,0.0,0.0,-0.00390625139698,-0.0156250055879,-0.0273437593132,0.0,0.0,0.0,0.0,0.0,0.0,0.0,0.0,0.0
1583763070233997333,177,1583763070042429082,imu,-0.017944348976,-0.0056762737222,0.372041999649,0.92821589649,0.0,0.0,0.0,0.0,0.0,0.0,0.0,0.0,0.0,0.0,0.0,0.0,0.0,0.0,0.0,0.0,0.0,0.0,0.0,0.0,0.0,-0.00390625139698,-0.0156250055879,-0.0273437593132,0.0,0.0,0.0,0.0,0.0,0.0,0.0,0.0,0.0
1583763070334246674,178,1583763070142429082,imu,-0.017944348976,-0.0056762737222,0.372041999649,0.92821589649,0.0,0.0,0.0,0.0,0.0,0.0,0.0,0.0,0.0,0.0,0.0,0.0,0.0,0.0,0.0,0.0,0.0,0.0,0.0,0.0,0.0,-0.00390625139698,0.00781250279397,0.0117187537253,0.0,0.0,0.0,0.0,0.0,0.0,0.0,0.0,0.0
1583763070434180477,179,1583763070281429082,imu,-0.017944348976,-0.0056762737222,0.372041999649,0.92821589649,0.0,0.0,0.0,0.0,0.0,0.0,0.0,0.0,0.0,0.0,0.0,0.0,0.0,0.0,0.0,0.0,0.0,0.0,0.0,0.0,0.0,-0.00390625139698,-0.0234375074506,-0.0273437593132,0.0,0.0,0.0,0.0,0.0,0.0,0.0,0.0,0.0
1583763070534135922,180,1583763070342429082,imu,-0.017944348976,-0.0056762737222,0.372041999649,0.92821589649,0.0,0.0,0.0,0.0,0.0,0.0,0.0,0.0,0.0,0.0,0.0,0.0,0.0,0.0,0.0,0.0,0.0,0.0,0.0,0.0,0.0,-0.00390625139698,-0.0234375074506,-0.0273437593132,0.0,0.0,0.0,0.0,0.0,0.0,0.0,0.0,0.0
1583763070634082056,181,1583763070481429082,imu,-0.017944348976,-0.0056762737222,0.372041999649,0.92821589649,0.0,0.0,0.0,0.0,0.0,0.0,0.0,0.0,0.0,0.0,0.0,0.0,0.0,0.0,0.0,0.0,0.0,0.0,0.0,0.0,0.0,-0.00390625139698,-0.0234375074506,0.0117187537253,0.0,0.0,0.0,0.0,0.0,0.0,0.0,0.0,0.0
1583763070734170200,182,1583763070542429082,imu,-0.017944348976,-0.0056762737222,0.372041999649,0.92821589649,0.0,0.0,0.0,0.0,0.0,0.0,0.0,0.0,0.0,0.0,0.0,0.0,0.0,0.0,0.0,0.0,0.0,0.0,0.0,0.0,0.0,-0.00390625139698,-0.0234375074506,0.0117187537253,0.0,0.0,0.0,0.0,0.0,0.0,0.0,0.0,0.0
1583763070834689804,183,1583763070642429082,imu,-0.017944348976,-0.00561523856595,0.369578074097,0.929199680987,0.0,0.0,0.0,0.0,0.0,0.0,0.0,0.0,0.0,0.0,0.0,0.0,0.0,0.0,0.0,0.0,0.0,0.0,0.0,0.0,0.0,-0.00390625139698,0.0234375074506,0.0117187537253,0.0,0.0,0.0,0.0,0.0,0.0,0.0,0.0,0.0
1583763070934160805,184,1583763070781429082,imu,-0.0178833138198,-0.00561523856595,0.37199619881,0.9282342528,0.0,0.0,0.0,0.0,0.0,0.0,0.0,0.0,0.0,0.0,0.0,0.0,0.0,0.0,0.0,0.0,0.0,0.0,0.0,0.0,0.0,-0.00390625139698,-0.0234375074506,0.00390625139698,0.0,0.0,0.0,0.0,0.0,0.0,0.0,0.0,0.0
1583763071034124354,185,1583763070842429082,imu,-0.0178833138198,-0.00561523856595,0.37199619881,0.9282342528,0.0,0.0,0.0,0.0,0.0,0.0,0.0,0.0,0.0,0.0,0.0,0.0,0.0,0.0,0.0,0.0,0.0,0.0,0.0,0.0,0.0,-0.00390625139698,-0.0234375074506,0.00390625139698,0.0,0.0,0.0,0.0,0.0,0.0,0.0,0.0,0.0
1583763071134180158,186,1583763070982429082,imu,-0.0178222786635,-0.00561523856595,0.371933703705,0.928259295697,0.0,0.0,0.0,0.0,0.0,0.0,0.0,0.0,0.0,0.0,0.0,0.0,0.0,0.0,0.0,0.0,0.0,0.0,0.0,0.0,0.0,-0.00390625139698,0.00781250279397,0.00390625139698,0.0,0.0,0.0,0.0,0.0,0.0,0.0,0.0,0.0
1583763071234018646,187,1583763071081429082,imu,-0.017700208351,-0.0057983440347,0.341381687949,0.939924753974,0.0,0.0,0.0,0.0,0.0,0.0,0.0,0.0,0.0,0.0,0.0,0.0,0.0,0.0,0.0,0.0,0.0,0.0,0.0,0.0,0.0,0.289062589407,-0.109375037253,-0.0351562611759,0.0,0.0,0.0,0.0,0.0,0.0,0.0,0.0,0.0
1583763071334657657,188,1583763071181429082,imu,-0.0175171028823,-0.0061645549722,0.386429407719,0.922318986495,0.0,0.0,0.0,0.0,0.0,0.0,0.0,0.0,0.0,0.0,0.0,0.0,0.0,0.0,0.0,0.0,0.0,0.0,0.0,0.0,0.0,-0.0585937723517,-0.0625000223517,-0.0273437593132,0.0,0.0,0.0,0.0,0.0,0.0,0.0,0.0,0.0
1583763071434084926,189,1583763071242429082,imu,-0.0175781380385,-0.00665283668786,0.568578089588,0.822629294422,0.0,0.0,0.0,0.0,0.0,0.0,0.0,0.0,0.0,0.0,0.0,0.0,0.0,0.0,0.0,0.0,0.0,0.0,0.0,0.0,0.0,-0.0585937723517,-0.0625000223517,-0.0273437593132,0.0,0.0,0.0,0.0,0.0,0.0,0.0,0.0,0.0
1583763071534170476,190,1583763071382429082,imu,-0.0176391731948,-0.00720215355977,0.650536503128,0.759474988461,0.0,0.0,0.0,0.0,0.0,0.0,0.0,0.0,0.0,0.0,0.0,0.0,0.0,0.0,0.0,0.0,0.0,0.0,0.0,0.0,0.0,-0.0820312798023,-0.0156250055879,-0.0195312574506,0.0,0.0,0.0,0.0,0.0,0.0,0.0,0.0,0.0
1583763071633829164,191,1583763071481429082,imu,-0.0176391731948,-0.00762940011919,0.682320974345,0.731052725848,0.0,0.0,0.0,0.0,0.0,0.0,0.0,0.0,0.0,0.0,0.0,0.0,0.0,0.0,0.0,0.0,0.0,0.0,0.0,0.0,0.0,-0.0664062723517,-0.0156250055879,0.0585937723517,0.0,0.0,0.0,0.0,0.0,0.0,0.0,0.0,0.0
1583763071734876658,192,1583763071582429082,imu,-0.0175781380385,-0.00799561105669,0.696198743916,0.717849085094,0.0,0.0,0.0,0.0,0.0,0.0,0.0,0.0,0.0,0.0,0.0,0.0,0.0,0.0,0.0,0.0,0.0,0.0,0.0,0.0,0.0,-0.0273437593132,-0.0234375074506,0.0195312574506,0.0,0.0,0.0,0.0,0.0,0.0,0.0,0.0,0.0
1583763071834079857,193,1583763071681429082,imu,-0.0175171028823,-0.00842285715044,0.702860822432,0.711327395993,0.0,0.0,0.0,0.0,0.0,0.0,0.0,0.0,0.0,0.0,0.0,0.0,0.0,0.0,0.0,0.0,0.0,0.0,0.0,0.0,0.0,-0.148437559605,0.0976562872529,0.0195312574506,0.0,0.0,0.0,0.0,0.0,0.0,0.0,0.0,0.0
1583763071934051497,194,1583763071782429082,imu,-0.017456067726,-0.00860596355051,0.706211943275,0.708000488118,0.0,0.0,0.0,0.0,0.0,0.0,0.0,0.0,0.0,0.0,0.0,0.0,0.0,0.0,0.0,0.0,0.0,0.0,0.0,0.0,0.0,-0.0625000223517,0.00781250279397,-0.0351562611759,0.0,0.0,0.0,0.0,0.0,0.0,0.0,0.0,0.0
1583763072033901158,195,1583763071841429082,imu,-0.0172729622573,-0.00836182199419,0.70830352319,0.705908010322,0.0,0.0,0.0,0.0,0.0,0.0,0.0,0.0,0.0,0.0,0.0,0.0,0.0,0.0,0.0,0.0,0.0,0.0,0.0,0.0,0.0,-0.0625000223517,0.00781250279397,-0.0351562611759,0.0,0.0,0.0,0.0,0.0,0.0,0.0,0.0,0.0
1583763072134066690,196,1583763071981429082,imu,-0.0170288216323,-0.00817871652544,0.709936835638,0.704265354397,0.0,0.0,0.0,0.0,0.0,0.0,0.0,0.0,0.0,0.0,0.0,0.0,0.0,0.0,0.0,0.0,0.0,0.0,0.0,0.0,0.0,-0.0781250298023,0.0898437798023,0.0507812686265,0.0,0.0,0.0,0.0,0.0,0.0,0.0,0.0,0.0
1583763072233966335,197,1583763072084429082,imu,-0.0168457143009,-0.00811768136919,0.71101525276,0.703176585462,0.0,0.0,0.0,0.0,0.0,0.0,0.0,0.0,0.0,0.0,0.0,0.0,0.0,0.0,0.0,0.0,0.0,0.0,0.0,0.0,0.0,-0.00390625139698,0.00781250279397,-0.0273437593132,0.0,0.0,0.0,0.0,0.0,0.0,0.0,0.0,0.0
1583763072334707267,198,1583763072187635993,imu,-0.0169067494571,-0.00781250558794,0.71163008208,0.702554358237,0.0,0.0,0.0,0.0,0.0,0.0,0.0,0.0,0.0,0.0,0.0,0.0,0.0,0.0,0.0,0.0,0.0,0.0,0.0,0.0,0.0,0.00390625139698,0.0820312798023,0.0117187537253,0.0,0.0,0.0,0.0,0.0,0.0,0.0,0.0,0.0
1583763072434120467,199,1583763072287635993,imu,-0.0167846791446,-0.00781250558794,0.712215055075,0.701961334637,0.0,0.0,0.0,0.0,0.0,0.0,0.0,0.0,0.0,0.0,0.0,0.0,0.0,0.0,0.0,0.0,0.0,0.0,0.0,0.0,0.0,-0.0703125223517,-0.0312500111759,-0.0273437593132,0.0,0.0,0.0,0.0,0.0,0.0,0.0,0.0,0.0
1583763072534123236,200,1583763072387635993,imu,-0.0166626088321,-0.00781250558794,0.712668609258,0.701500857718,0.0,0.0,0.0,0.0,0.0,0.0,0.0,0.0,0.0,0.0,0.0,0.0,0.0,0.0,0.0,0.0,0.0,0.0,0.0,0.0,0.0,-0.0312500111759,0.0,-0.0195312574506,0.0,0.0,0.0,0.0,0.0,0.0,0.0,0.0,0.0
1583763072634069266,201,1583763072488635993,imu,-0.0164795033634,-0.00787354074419,0.713048869258,0.701114334506,0.0,0.0,0.0,0.0,0.0,0.0,0.0,0.0,0.0,0.0,0.0,0.0,0.0,0.0,0.0,0.0,0.0,0.0,0.0,0.0,0.0,0.00390625139698,-0.00781250279397,0.0195312574506,0.0,0.0,0.0,0.0,0.0,0.0,0.0,0.0,0.0
1583763072733982189,202,1583763072587635993,imu,-0.0164184682071,-0.00799561105669,0.713322602202,0.700835833265,0.0,0.0,0.0,0.0,0.0,0.0,0.0,0.0,0.0,0.0,0.0,0.0,0.0,0.0,0.0,0.0,0.0,0.0,0.0,0.0,0.0,-0.0312500111759,-0.00781250279397,-0.0195312574506,0.0,0.0,0.0,0.0,0.0,0.0,0.0,0.0,0.0
1583763072833908071,203,1583763072688635993,imu,-0.0162963978946,-0.00793457590044,0.713535832054,0.700618738241,0.0,0.0,0.0,0.0,0.0,0.0,0.0,0.0,0.0,0.0,0.0,0.0,0.0,0.0,0.0,0.0,0.0,0.0,0.0,0.0,0.0,-0.0312500111759,-0.00781250279397,0.0195312574506,0.0,0.0,0.0,0.0,0.0,0.0,0.0,0.0,0.0
1583763072934508310,204,1583763072747635993,imu,-0.0161743275821,-0.00793457590044,0.713716003692,0.700435197627,0.0,0.0,0.0,0.0,0.0,0.0,0.0,0.0,0.0,0.0,0.0,0.0,0.0,0.0,0.0,0.0,0.0,0.0,0.0,0.0,0.0,-0.0312500111759,-0.00781250279397,0.0195312574506,0.0,0.0,0.0,0.0,0.0,0.0,0.0,0.0,0.0
1583763073034259225,205,1583763072887635993,imu,-0.0161132924259,-0.00799561105669,0.71385772279,0.700290762193,0.0,0.0,0.0,0.0,0.0,0.0,0.0,0.0,0.0,0.0,0.0,0.0,0.0,0.0,0.0,0.0,0.0,0.0,0.0,0.0,0.0,-0.0312500111759,-0.00781250279397,0.0117187537253,0.0,0.0,0.0,0.0,0.0,0.0,0.0,0.0,0.0
1583763073136805383,206,1583763072948635993,imu,-0.0159912221134,-0.00805664621294,0.713986901281,0.700159056786,0.0,0.0,0.0,0.0,0.0,0.0,0.0,0.0,0.0,0.0,0.0,0.0,0.0,0.0,0.0,0.0,0.0,0.0,0.0,0.0,0.0,-0.0312500111759,-0.00781250279397,0.0117187537253,0.0,0.0,0.0,0.0,0.0,0.0,0.0,0.0,0.0
1583763073234814939,207,1583763073048635993,imu,-0.0159301869571,-0.00817871652544,0.714090275316,0.700053625588,0.0,0.0,0.0,0.0,0.0,0.0,0.0,0.0,0.0,0.0,0.0,0.0,0.0,0.0,0.0,0.0,0.0,0.0,0.0,0.0,0.0,-0.0234375074506,-0.00781250279397,0.00390625139698,0.0,0.0,0.0,0.0,0.0,0.0,0.0,0.0,0.0
1583763073334377125,208,1583763073147635993,imu,-0.0158691518009,-0.00817871652544,0.714172012242,0.699970240031,0.0,0.0,0.0,0.0,0.0,0.0,0.0,0.0,0.0,0.0,0.0,0.0,0.0,0.0,0.0,0.0,0.0,0.0,0.0,0.0,0.0,0.0195312574506,-0.00781250279397,0.00390625139698,0.0,0.0,0.0,0.0,0.0,0.0,0.0,0.0,0.0
1583763073433988495,209,1583763073288635993,imu,-0.0158081166446,-0.00842285715044,0.714256040408,0.699884496714,0.0,0.0,0.0,0.0,0.0,0.0,0.0,0.0,0.0,0.0,0.0,0.0,0.0,0.0,0.0,0.0,0.0,0.0,0.0,0.0,0.0,0.0820312798023,0.0468750149012,-0.0273437593132,0.0,0.0,0.0,0.0,0.0,0.0,0.0,0.0,0.0
1583763073534346115,210,1583763073347635993,imu,-0.0156860463321,-0.00878906901926,0.714340110603,0.699798689898,0.0,0.0,0.0,0.0,0.0,0.0,0.0,0.0,0.0,0.0,0.0,0.0,0.0,0.0,0.0,0.0,0.0,0.0,0.0,0.0,0.0,0.0820312798023,0.0468750149012,-0.0273437593132,0.0,0.0,0.0,0.0,0.0,0.0,0.0,0.0,0.0
1583763073633990568,211,1583763073486635993,imu,-0.0156860463321,-0.00897217448801,0.714393098553,0.699744596792,0.0,0.0,0.0,0.0,0.0,0.0,0.0,0.0,0.0,0.0,0.0,0.0,0.0,0.0,0.0,0.0,0.0,0.0,0.0,0.0,0.0,-0.0390625149012,0.00781250279397,0.0117187537253,0.0,0.0,0.0,0.0,0.0,0.0,0.0,0.0,0.0
1583763073734129067,212,1583763073588635993,imu,-0.0156250111759,-0.00927735026926,0.714449855623,0.699686646864,0.0,0.0,0.0,0.0,0.0,0.0,0.0,0.0,0.0,0.0,0.0,0.0,0.0,0.0,0.0,0.0,0.0,0.0,0.0,0.0,0.0,-0.00390625139698,0.00781250279397,-0.0273437593132,0.0,0.0,0.0,0.0,0.0,0.0,0.0,0.0,0.0
1583763073834413203,213,1583763073647635993,imu,-0.0155639760196,-0.00970459636301,0.714506137112,0.699629173226,0.0,0.0,0.0,0.0,0.0,0.0,0.0,0.0,0.0,0.0,0.0,0.0,0.0,0.0,0.0,0.0,0.0,0.0,0.0,0.0,0.0,-0.00390625139698,0.00781250279397,-0.0273437593132,0.0,0.0,0.0,0.0,0.0,0.0,0.0,0.0,0.0
1583763073934549841,214,1583763073787635993,imu,-0.0153198353946,-0.00982666760683,0.714556282057,0.699577958324,0.0,0.0,0.0,0.0,0.0,0.0,0.0,0.0,0.0,0.0,0.0,0.0,0.0,0.0,0.0,0.0,0.0,0.0,0.0,0.0,0.0,0.0195312574506,0.0,-0.0273437593132,0.0,0.0,0.0,0.0,0.0,0.0,0.0,0.0,0.0
1583763074034224041,215,1583763073848635993,imu,-0.0151977650821,-0.0101928785443,0.714602121763,0.699531134098,0.0,0.0,0.0,0.0,0.0,0.0,0.0,0.0,0.0,0.0,0.0,0.0,0.0,0.0,0.0,0.0,0.0,0.0,0.0,0.0,0.0,0.0195312574506,0.0,-0.0273437593132,0.0,0.0,0.0,0.0,0.0,0.0,0.0,0.0,0.0
1583763074135113376,216,1583763073987635993,imu,-0.0151367299259,-0.0104370191693,0.714633012171,0.69949957678,0.0,0.0,0.0,0.0,0.0,0.0,0.0,0.0,0.0,0.0,0.0,0.0,0.0,0.0,0.0,0.0,0.0,0.0,0.0,0.0,0.0,-0.125000044703,-0.0703125223517,0.0195312574506,0.0,0.0,0.0,0.0,0.0,0.0,0.0,0.0,0.0
1583763074234363012,217,1583763074086635993,imu,-0.0149536235258,-0.0104370191693,0.714651517892,0.699480670194,0.0,0.0,0.0,0.0,0.0,0.0,0.0,0.0,0.0,0.0,0.0,0.0,0.0,0.0,0.0,0.0,0.0,0.0,0.0,0.0,0.0,-0.238281339407,-0.0625000223517,-0.0195312574506,0.0,0.0,0.0,0.0,0.0,0.0,0.0,0.0,0.0
1583763074334215980,218,1583763074189635993,imu,-0.0151367299259,-0.0102539137006,0.714636389262,0.69949612661,0.0,0.0,0.0,0.0,0.0,0.0,0.0,0.0,0.0,0.0,0.0,0.0,0.0,0.0,0.0,0.0,0.0,0.0,0.0,0.0,0.0,0.128906294703,0.00781250279397,0.0195312574506,0.0,0.0,0.0,0.0,0.0,0.0,0.0,0.0,0.0
1583763074434124848,219,1583763074247635993,imu,-0.0152588002384,-0.00970459636301,0.714609716368,0.699523375787,0.0,0.0,0.0,0.0,0.0,0.0,0.0,0.0,0.0,0.0,0.0,0.0,0.0,0.0,0.0,0.0,0.0,0.0,0.0,0.0,0.0,0.128906294703,0.00781250279397,0.0195312574506,0.0,0.0,0.0,0.0,0.0,0.0,0.0,0.0,0.0
1583763074534251755,220,1583763074388635993,imu,-0.0152588002384,-0.00952149089426,0.714604165321,0.699529046507,0.0,0.0,0.0,0.0,0.0,0.0,0.0,0.0,0.0,0.0,0.0,0.0,0.0,0.0,0.0,0.0,0.0,0.0,0.0,0.0,0.0,0.0585937723517,-0.0312500111759,-0.0195312574506,0.0,0.0,0.0,0.0,0.0,0.0,0.0,0.0,0.0
1583763074634204547,221,1583763074448635993,imu,-0.0153198353946,-0.00933838542551,0.714594469325,0.699538951317,0.0,0.0,0.0,0.0,0.0,0.0,0.0,0.0,0.0,0.0,0.0,0.0,0.0,0.0,0.0,0.0,0.0,0.0,0.0,0.0,0.0,0.0585937723517,-0.0312500111759,-0.0195312574506,0.0,0.0,0.0,0.0,0.0,0.0,0.0,0.0,0.0
1583763074734279605,222,1583763074547635993,imu,-0.0153808705509,-0.00933838542551,0.714591245873,0.699542244129,0.0,0.0,0.0,0.0,0.0,0.0,0.0,0.0,0.0,0.0,0.0,0.0,0.0,0.0,0.0,0.0,0.0,0.0,0.0,0.0,0.0,0.0429687649012,-0.0312500111759,0.0195312574506,0.0,0.0,0.0,0.0,0.0,0.0,0.0,0.0,0.0
1583763074834118627,223,1583763074694787963,imu,-0.0154419057071,-0.00915527995676,0.71458134481,0.699552358047,0.0,0.0,0.0,0.0,0.0,0.0,0.0,0.0,0.0,0.0,0.0,0.0,0.0,0.0,0.0,0.0,0.0,0.0,0.0,0.0,0.0,0.0820312798023,0.0156250055879,0.0195312574506,0.0,0.0,0.0,0.0,0.0,0.0,0.0,0.0,0.0
1583763074934116433,224,1583763074793787963,imu,-0.0155029408634,-0.00927735026926,0.714582155996,0.699551529433,0.0,0.0,0.0,0.0,0.0,0.0,0.0,0.0,0.0,0.0,0.0,0.0,0.0,0.0,0.0,0.0,0.0,0.0,0.0,0.0,0.0,0.0273437593132,-0.0156250055879,0.00390625139698,0.0,0.0,0.0,0.0,0.0,0.0,0.0,0.0,0.0
1583763075034291151,225,1583763074854787963,imu,-0.0155029408634,-0.00946045573801,0.714588680273,0.699544864912,0.0,0.0,0.0,0.0,0.0,0.0,0.0,0.0,0.0,0.0,0.0,0.0,0.0,0.0,0.0,0.0,0.0,0.0,0.0,0.0,0.0,0.0273437593132,-0.0156250055879,0.00390625139698,0.0,0.0,0.0,0.0,0.0,0.0,0.0,0.0,0.0
1583763075134339602,226,1583763074994787963,imu,-0.0154419057071,-0.00970459636301,0.714601270655,0.699532003542,0.0,0.0,0.0,0.0,0.0,0.0,0.0,0.0,0.0,0.0,0.0,0.0,0.0,0.0,0.0,0.0,0.0,0.0,0.0,0.0,0.0,-0.0195312574506,0.0156250055879,0.00390625139698,0.0,0.0,0.0,0.0,0.0,0.0,0.0,0.0,0.0
1583763075233991592,227,1583763075093787963,imu,-0.0153808705509,-0.00994873791933,0.714613957734,0.699519042923,0.0,0.0,0.0,0.0,0.0,0.0,0.0,0.0,0.0,0.0,0.0,0.0,0.0,0.0,0.0,0.0,0.0,0.0,0.0,0.0,0.0,0.0195312574506,-0.0234375074506,-0.0351562611759,0.0,0.0,0.0,0.0,0.0,0.0,0.0,0.0,0.0
1583763075334478167,228,1583763075153787963,imu,-0.0152588002384,-0.0101318433881,0.714627940797,0.699504757834,0.0,0.0,0.0,0.0,0.0,0.0,0.0,0.0,0.0,0.0,0.0,0.0,0.0,0.0,0.0,0.0,0.0,0.0,0.0,0.0,0.0,0.0195312574506,-0.0234375074506,-0.0351562611759,0.0,0.0,0.0,0.0,0.0,0.0,0.0,0.0,0.0
1583763075433870727,229,1583763075294787963,imu,-0.0152588002384,-0.0103759840131,0.714637551401,0.699494939315,0.0,0.0,0.0,0.0,0.0,0.0,0.0,0.0,0.0,0.0,0.0,0.0,0.0,0.0,0.0,0.0,0.0,0.0,0.0,0.0,0.0,0.0195312574506,-0.0156250055879,0.0195312574506,0.0,0.0,0.0,0.0,0.0,0.0,0.0,0.0,0.0
1583763075534612321,230,1583763075394787963,imu,-0.0152588002384,-0.0105590894818,0.714644833273,0.699487499728,0.0,0.0,0.0,0.0,0.0,0.0,0.0,0.0,0.0,0.0,0.0,0.0,0.0,0.0,0.0,0.0,0.0,0.0,0.0,0.0,0.0,-0.0273437593132,0.0312500111759,-0.0195312574506,0.0,0.0,0.0,0.0,0.0,0.0,0.0,0.0,0.0
1583763075634051635,231,1583763075493787963,imu,-0.0151977650821,-0.0107421949506,0.714655767976,0.699476327905,0.0,0.0,0.0,0.0,0.0,0.0,0.0,0.0,0.0,0.0,0.0,0.0,0.0,0.0,0.0,0.0,0.0,0.0,0.0,0.0,0.0,0.0117187537253,-0.0156250055879,0.0195312574506,0.0,0.0,0.0,0.0,0.0,0.0,0.0,0.0,0.0
1583763075733905001,232,1583763075594787963,imu,-0.0151367299259,-0.0109253004193,0.71466681506,0.699465040908,0.0,0.0,0.0,0.0,0.0,0.0,0.0,0.0,0.0,0.0,0.0,0.0,0.0,0.0,0.0,0.0,0.0,0.0,0.0,0.0,0.0,0.00390625139698,0.0234375074506,-0.0195312574506,0.0,0.0,0.0,0.0,0.0,0.0,0.0,0.0,0.0
1583763075834063236,233,1583763075693787963,imu,-0.0150756947696,-0.0111084068194,0.714677974561,0.699453638691,0.0,0.0,0.0,0.0,0.0,0.0,0.0,0.0,0.0,0.0,0.0,0.0,0.0,0.0,0.0,0.0,0.0,0.0,0.0,0.0,0.0,0.00390625139698,-0.0156250055879,0.0195312574506,0.0,0.0,0.0,0.0,0.0,0.0,0.0,0.0,0.0
1583763075934177632,234,1583763075793787963,imu,-0.0150756947696,-0.0112304771319,0.71468307615,0.699448426022,0.0,0.0,0.0,0.0,0.0,0.0,0.0,0.0,0.0,0.0,0.0,0.0,0.0,0.0,0.0,0.0,0.0,0.0,0.0,0.0,0.0,0.0117187537253,-0.0156250055879,0.0195312574506,0.0,0.0,0.0,0.0,0.0,0.0,0.0,0.0,0.0
1583763076034001283,235,1583763075893787963,imu,-0.0150756947696,-0.0113525474444,0.714688387238,0.699442999212,0.0,0.0,0.0,0.0,0.0,0.0,0.0,0.0,0.0,0.0,0.0,0.0,0.0,0.0,0.0,0.0,0.0,0.0,0.0,0.0,0.0,-0.0273437593132,0.0234375074506,-0.0195312574506,0.0,0.0,0.0,0.0,0.0,0.0,0.0,0.0,0.0
1583763076134352335,236,1583763075994787963,imu,-0.0150146596134,-0.0114135826007,0.714694508965,0.699436743998,0.0,0.0,0.0,0.0,0.0,0.0,0.0,0.0,0.0,0.0,0.0,0.0,0.0,0.0,0.0,0.0,0.0,0.0,0.0,0.0,0.0,0.0195312574506,0.0156250055879,0.0195312574506,0.0,0.0,0.0,0.0,0.0,0.0,0.0,0.0,0.0
1583763076233990134,237,1583763076093787963,imu,-0.0149536235258,-0.0115356529132,0.714703297086,0.699427764058,0.0,0.0,0.0,0.0,0.0,0.0,0.0,0.0,0.0,0.0,0.0,0.0,0.0,0.0,0.0,0.0,0.0,0.0,0.0,0.0,0.0,0.0117187537253,0.00781250279397,-0.0195312574506,0.0,0.0,0.0,0.0,0.0,0.0,0.0,0.0,0.0
1583763076335492459,238,1583763076194787963,imu,-0.0148925883695,-0.0115356529132,0.714706752181,0.699424233486,0.0,0.0,0.0,0.0,0.0,0.0,0.0,0.0,0.0,0.0,0.0,0.0,0.0,0.0,0.0,0.0,0.0,0.0,0.0,0.0,0.0,-0.0273437593132,0.00781250279397,-0.0195312574506,0.0,0.0,0.0,0.0,0.0,0.0,0.0,0.0,0.0
1583763076433878955,239,1583763076293787963,imu,-0.0148315532133,-0.0116577232257,0.714715568137,0.699415224786,0.0,0.0,0.0,0.0,0.0,0.0,0.0,0.0,0.0,0.0,0.0,0.0,0.0,0.0,0.0,0.0,0.0,0.0,0.0,0.0,0.0,0.0117187537253,0.00781250279397,0.0273437593132,0.0,0.0,0.0,0.0,0.0,0.0,0.0,0.0,0.0
1583763076533940269,240,1583763076392787963,imu,-0.0148315532133,-0.0115966880694,0.714712808888,0.699418044386,0.0,0.0,0.0,0.0,0.0,0.0,0.0,0.0,0.0,0.0,0.0,0.0,0.0,0.0,0.0,0.0,0.0,0.0,0.0,0.0,0.0,0.0117187537253,0.00781250279397,0.0195312574506,0.0,0.0,0.0,0.0,0.0,0.0,0.0,0.0,0.0
1583763076634093118,241,1583763076494787963,imu,-0.0148925883695,-0.0116577232257,0.714712062182,0.699418807419,0.0,0.0,0.0,0.0,0.0,0.0,0.0,0.0,0.0,0.0,0.0,0.0,0.0,0.0,0.0,0.0,0.0,0.0,0.0,0.0,0.0,0.00390625139698,0.00781250279397,0.0195312574506,0.0,0.0,0.0,0.0,0.0,0.0,0.0,0.0,0.0
1583763076734485010,242,1583763076594787963,imu,-0.0148315532133,-0.0117187583819,0.714718214156,0.699412520873,0.0,0.0,0.0,0.0,0.0,0.0,0.0,0.0,0.0,0.0,0.0,0.0,0.0,0.0,0.0,0.0,0.0,0.0,0.0,0.0,0.0,-0.0351562611759,-0.0312500111759,0.0117187537253,0.0,0.0,0.0,0.0,0.0,0.0,0.0,0.0,0.0
1583763076834514138,243,1583763076693787963,imu,-0.014770518057,-0.0117187583819,0.714721642317,0.699409017674,0.0,0.0,0.0,0.0,0.0,0.0,0.0,0.0,0.0,0.0,0.0,0.0,0.0,0.0,0.0,0.0,0.0,0.0,0.0,0.0,0.0,0.00390625139698,0.0234375074506,-0.0273437593132,0.0,0.0,0.0,0.0,0.0,0.0,0.0,0.0,0.0
1583763076934027942,244,1583763076794787963,imu,-0.014770518057,-0.0118408286944,0.71472716286,0.699403376222,0.0,0.0,0.0,0.0,0.0,0.0,0.0,0.0,0.0,0.0,0.0,0.0,0.0,0.0,0.0,0.0,0.0,0.0,0.0,0.0,0.0,-0.0351562611759,-0.0156250055879,0.0117187537253,0.0,0.0,0.0,0.0,0.0,0.0,0.0,0.0,0.0
1583763077034264237,245,1583763076893787963,imu,-0.014770518057,-0.0118408286944,0.71472722185,0.699403315939,0.0,0.0,0.0,0.0,0.0,0.0,0.0,0.0,0.0,0.0,0.0,0.0,0.0,0.0,0.0,0.0,0.0,0.0,0.0,0.0,0.0,0.00390625139698,0.0234375074506,-0.0273437593132,0.0,0.0,0.0,0.0,0.0,0.0,0.0,0.0,0.0
1583763077134003377,246,1583763076953787963,imu,-0.0148315532133,-0.0119628990069,0.714729309971,0.699401182061,0.0,0.0,0.0,0.0,0.0,0.0,0.0,0.0,0.0,0.0,0.0,0.0,0.0,0.0,0.0,0.0,0.0,0.0,0.0,0.0,0.0,0.00390625139698,0.0234375074506,-0.0273437593132,0.0,0.0,0.0,0.0,0.0,0.0,0.0,0.0,0.0
1583763077233805799,247,1583763077093787963,imu,-0.0148925883695,-0.0119628990069,0.714725870577,0.699404696816,0.0,0.0,0.0,0.0,0.0,0.0,0.0,0.0,0.0,0.0,0.0,0.0,0.0,0.0,0.0,0.0,0.0,0.0,0.0,0.0,0.0,0.00390625139698,-0.0156250055879,0.0195312574506,0.0,0.0,0.0,0.0,0.0,0.0,0.0,0.0,0.0
1583763077334816026,248,1583763077153787963,imu,-0.0149536235258,-0.0120239341632,0.714725194993,0.699405387199,0.0,0.0,0.0,0.0,0.0,0.0,0.0,0.0,0.0,0.0,0.0,0.0,0.0,0.0,0.0,0.0,0.0,0.0,0.0,0.0,0.0,0.00390625139698,-0.0156250055879,0.0195312574506,0.0,0.0,0.0,0.0,0.0,0.0,0.0,0.0,0.0
1583763077434007479,249,1583763077295220952,imu,-0.0150146596134,-0.0120239341632,0.714721788535,0.699408868255,0.0,0.0,0.0,0.0,0.0,0.0,0.0,0.0,0.0,0.0,0.0,0.0,0.0,0.0,0.0,0.0,0.0,0.0,0.0,0.0,0.0,0.0195312574506,-0.0156250055879,0.0195312574506,0.0,0.0,0.0,0.0,0.0,0.0,0.0,0.0,0.0
1583763077534488553,250,1583763077357220952,imu,-0.0150756947696,-0.0119628990069,0.714715531423,0.699415262304,0.0,0.0,0.0,0.0,0.0,0.0,0.0,0.0,0.0,0.0,0.0,0.0,0.0,0.0,0.0,0.0,0.0,0.0,0.0,0.0,0.0,0.0195312574506,-0.0156250055879,0.0195312574506,0.0,0.0,0.0,0.0,0.0,0.0,0.0,0.0,0.0
1583763077634441397,251,1583763077456220952,imu,-0.0151367299259,-0.0119628990069,0.71471203705,0.6994188331,0.0,0.0,0.0,0.0,0.0,0.0,0.0,0.0,0.0,0.0,0.0,0.0,0.0,0.0,0.0,0.0,0.0,0.0,0.0,0.0,0.0,0.0195312574506,-0.0156250055879,-0.0195312574506,0.0,0.0,0.0,0.0,0.0,0.0,0.0,0.0,0.0
1583763077734362969,252,1583763077595220952,imu,-0.0150756947696,-0.0119628990069,0.714715531423,0.699415262304,0.0,0.0,0.0,0.0,0.0,0.0,0.0,0.0,0.0,0.0,0.0,0.0,0.0,0.0,0.0,0.0,0.0,0.0,0.0,0.0,0.0,0.0117187537253,0.0156250055879,0.0117187537253,0.0,0.0,0.0,0.0,0.0,0.0,0.0,0.0,0.0
1583763077834085952,253,1583763077656220952,imu,-0.0150756947696,-0.0120239341632,0.714718245751,0.699412488586,0.0,0.0,0.0,0.0,0.0,0.0,0.0,0.0,0.0,0.0,0.0,0.0,0.0,0.0,0.0,0.0,0.0,0.0,0.0,0.0,0.0,0.0117187537253,0.0156250055879,0.0117187537253,0.0,0.0,0.0,0.0,0.0,0.0,0.0,0.0,0.0
1583763077934151984,254,1583763077756220952,imu,-0.0150756947696,-0.0120239341632,0.714718245751,0.699412488586,0.0,0.0,0.0,0.0,0.0,0.0,0.0,0.0,0.0,0.0,0.0,0.0,0.0,0.0,0.0,0.0,0.0,0.0,0.0,0.0,0.0,0.0117187537253,-0.0156250055879,0.0117187537253,0.0,0.0,0.0,0.0,0.0,0.0,0.0,0.0,0.0
1583763078034410894,255,1583763077856220952,imu,-0.0150146596134,-0.0120239341632,0.714721727392,0.699408930736,0.0,0.0,0.0,0.0,0.0,0.0,0.0,0.0,0.0,0.0,0.0,0.0,0.0,0.0,0.0,0.0,0.0,0.0,0.0,0.0,0.0,-0.0351562611759,-0.0234375074506,0.00390625139698,0.0,0.0,0.0,0.0,0.0,0.0,0.0,0.0,0.0
1583763078135689391,256,1583763077996220952,imu,-0.0149536235258,-0.0120239341632,0.714725254753,0.699405326129,0.0,0.0,0.0,0.0,0.0,0.0,0.0,0.0,0.0,0.0,0.0,0.0,0.0,0.0,0.0,0.0,0.0,0.0,0.0,0.0,0.0,0.0117187537253,0.00781250279397,0.0117187537253,0.0,0.0,0.0,0.0,0.0,0.0,0.0,0.0,0.0
1583763078233984452,257,1583763078056220952,imu,-0.0148925883695,-0.0119628990069,0.714725930069,0.69940463602,0.0,0.0,0.0,0.0,0.0,0.0,0.0,0.0,0.0,0.0,0.0,0.0,0.0,0.0,0.0,0.0,0.0,0.0,0.0,0.0,0.0,0.0117187537253,0.00781250279397,0.0117187537253,0.0,0.0,0.0,0.0,0.0,0.0,0.0,0.0,0.0
1583763078334196658,258,1583763078156220952,imu,-0.014770518057,-0.0119628990069,0.714732792028,0.699397623673,0.0,0.0,0.0,0.0,0.0,0.0,0.0,0.0,0.0,0.0,0.0,0.0,0.0,0.0,0.0,0.0,0.0,0.0,0.0,0.0,0.0,0.0117187537253,-0.0312500111759,0.0117187537253,0.0,0.0,0.0,0.0,0.0,0.0,0.0,0.0,0.0
1583763078434409160,259,1583763078257220952,imu,-0.0147094829008,-0.0119628990069,0.714736201876,0.699394139043,0.0,0.0,0.0,0.0,0.0,0.0,0.0,0.0,0.0,0.0,0.0,0.0,0.0,0.0,0.0,0.0,0.0,0.0,0.0,0.0,0.0,-0.0273437593132,0.00781250279397,0.00390625139698,0.0,0.0,0.0,0.0,0.0,0.0,0.0,0.0,0.0
1583763078534009200,260,1583763078356220952,imu,-0.0146484477445,-0.0119628990069,0.714739543595,0.699390724003,0.0,0.0,0.0,0.0,0.0,0.0,0.0,0.0,0.0,0.0,0.0,0.0,0.0,0.0,0.0,0.0,0.0,0.0,0.0,0.0,0.0,-0.0273437593132,0.00781250279397,0.00390625139698,0.0,0.0,0.0,0.0,0.0,0.0,0.0,0.0,0.0
1583763078633849504,261,1583763078456220952,imu,-0.0145874125883,-0.0120239341632,0.714745755919,0.699384375287,0.0,0.0,0.0,0.0,0.0,0.0,0.0,0.0,0.0,0.0,0.0,0.0,0.0,0.0,0.0,0.0,0.0,0.0,0.0,0.0,0.0,0.0117187537253,-0.0234375074506,-0.0273437593132,0.0,0.0,0.0,0.0,0.0,0.0,0.0,0.0,0.0
1583763078734107173,262,1583763078556220952,imu,-0.0146484477445,-0.0119628990069,0.714739597636,0.699390668776,0.0,0.0,0.0,0.0,0.0,0.0,0.0,0.0,0.0,0.0,0.0,0.0,0.0,0.0,0.0,0.0,0.0,0.0,0.0,0.0,0.0,-0.0273437593132,-0.0234375074506,0.0117187537253,0.0,0.0,0.0,0.0,0.0,0.0,0.0,0.0,0.0
1583763078834112676,263,1583763078656220952,imu,-0.0146484477445,-0.0119628990069,0.714739597636,0.699390668776,0.0,0.0,0.0,0.0,0.0,0.0,0.0,0.0,0.0,0.0,0.0,0.0,0.0,0.0,0.0,0.0,0.0,0.0,0.0,0.0,0.0,0.0195312574506,-0.0312500111759,0.0117187537253,0.0,0.0,0.0,0.0,0.0,0.0,0.0,0.0,0.0
1583763078934601738,264,1583763078757220952,imu,-0.0146484477445,-0.0120239341632,0.714742374276,0.699387831188,0.0,0.0,0.0,0.0,0.0,0.0,0.0,0.0,0.0,0.0,0.0,0.0,0.0,0.0,0.0,0.0,0.0,0.0,0.0,0.0,0.0,0.0117187537253,0.0156250055879,0.00390625139698,0.0,0.0,0.0,0.0,0.0,0.0,0.0,0.0,0.0
1583763079034045866,265,1583763078856220952,imu,-0.0146484477445,-0.0120849693194,0.714745164976,0.699384979209,0.0,0.0,0.0,0.0,0.0,0.0,0.0,0.0,0.0,0.0,0.0,0.0,0.0,0.0,0.0,0.0,0.0,0.0,0.0,0.0,0.0,0.00390625139698,0.0156250055879,0.00390625139698,0.0,0.0,0.0,0.0,0.0,0.0,0.0,0.0,0.0
1583763079134463151,266,1583763078956220952,imu,-0.0146484477445,-0.0121460044757,0.714747969734,0.69938211284,0.0,0.0,0.0,0.0,0.0,0.0,0.0,0.0,0.0,0.0,0.0,0.0,0.0,0.0,0.0,0.0,0.0,0.0,0.0,0.0,0.0,-0.00390625139698,0.0156250055879,-0.0273437593132,0.0,0.0,0.0,0.0,0.0,0.0,0.0,0.0,0.0
1583763079233884100,267,1583763079057220952,imu,-0.0147094829008,-0.0121460044757,0.714744626086,0.699385529934,0.0,0.0,0.0,0.0,0.0,0.0,0.0,0.0,0.0,0.0,0.0,0.0,0.0,0.0,0.0,0.0,0.0,0.0,0.0,0.0,0.0,-0.0351562611759,-0.0156250055879,-0.0273437593132,0.0,0.0,0.0,0.0,0.0,0.0,0.0,0.0,0.0
1583763079334478944,268,1583763079156220952,imu,-0.0146484477445,-0.0121460044757,0.714748020403,0.699382061058,0.0,0.0,0.0,0.0,0.0,0.0,0.0,0.0,0.0,0.0,0.0,0.0,0.0,0.0,0.0,0.0,0.0,0.0,0.0,0.0,0.0,0.0117187537253,0.0156250055879,0.0195312574506,0.0,0.0,0.0,0.0,0.0,0.0,0.0,0.0,0.0
1583763079434109347,269,1583763079256220952,imu,-0.0145874125883,-0.0121460044757,0.71475140064,0.699378606538,0.0,0.0,0.0,0.0,0.0,0.0,0.0,0.0,0.0,0.0,0.0,0.0,0.0,0.0,0.0,0.0,0.0,0.0,0.0,0.0,0.0,-0.0273437593132,0.0156250055879,-0.0195312574506,0.0,0.0,0.0,0.0,0.0,0.0,0.0,0.0,0.0
1583763079534106228,270,1583763079357220952,imu,-0.014526377432,-0.0120849693194,0.714751963213,0.699378031598,0.0,0.0,0.0,0.0,0.0,0.0,0.0,0.0,0.0,0.0,0.0,0.0,0.0,0.0,0.0,0.0,0.0,0.0,0.0,0.0,0.0,0.0117187537253,0.0156250055879,0.0195312574506,0.0,0.0,0.0,0.0,0.0,0.0,0.0,0.0,0.0
1583763079634198820,271,1583763079456220952,imu,-0.0144653422758,-0.0121460044757,0.714758072228,0.699371788239,0.0,0.0,0.0,0.0,0.0,0.0,0.0,0.0,0.0,0.0,0.0,0.0,0.0,0.0,0.0,0.0,0.0,0.0,0.0,0.0,0.0,0.0117187537253,0.0156250055879,0.0195312574506,0.0,0.0,0.0,0.0,0.0,0.0,0.0,0.0,0.0
1583763079734466759,272,1583763079556220952,imu,-0.0144653422758,-0.0122070396319,0.714760845414,0.699368954031,0.0,0.0,0.0,0.0,0.0,0.0,0.0,0.0,0.0,0.0,0.0,0.0,0.0,0.0,0.0,0.0,0.0,0.0,0.0,0.0,0.0,0.00390625139698,-0.0234375074506,-0.0195312574506,0.0,0.0,0.0,0.0,0.0,0.0,0.0,0.0,0.0
1583763079834347176,273,1583763079656220952,imu,-0.0144653422758,-0.0122680747882,0.71476372375,0.699366012337,0.0,0.0,0.0,0.0,0.0,0.0,0.0,0.0,0.0,0.0,0.0,0.0,0.0,0.0,0.0,0.0,0.0,0.0,0.0,0.0,0.0,-0.0351562611759,0.0156250055879,0.0195312574506,0.0,0.0,0.0,0.0,0.0,0.0,0.0,0.0,0.0
1583763079934262564,274,1583763079760793100,imu,-0.014526377432,-0.0122680747882,0.714760370394,0.699369439506,0.0,0.0,0.0,0.0,0.0,0.0,0.0,0.0,0.0,0.0,0.0,0.0,0.0,0.0,0.0,0.0,0.0,0.0,0.0,0.0,0.0,0.00390625139698,-0.0156250055879,-0.0195312574506,0.0,0.0,0.0,0.0,0.0,0.0,0.0,0.0,0.0
1583763080034140312,275,1583763079860793100,imu,-0.014526377432,-0.0122680747882,0.714760370394,0.699369439506,0.0,0.0,0.0,0.0,0.0,0.0,0.0,0.0,0.0,0.0,0.0,0.0,0.0,0.0,0.0,0.0,0.0,0.0,0.0,0.0,0.0,-0.0351562611759,-0.0156250055879,0.0195312574506,0.0,0.0,0.0,0.0,0.0,0.0,0.0,0.0,0.0
1583763080134156622,276,1583763079961793100,imu,-0.0144653422758,-0.0122680747882,0.714763679335,0.699366057729,0.0,0.0,0.0,0.0,0.0,0.0,0.0,0.0,0.0,0.0,0.0,0.0,0.0,0.0,0.0,0.0,0.0,0.0,0.0,0.0,0.0,-0.0273437593132,0.0156250055879,0.0117187537253,0.0,0.0,0.0,0.0,0.0,0.0,0.0,0.0,0.0
1583763080234470783,277,1583763080060793100,imu,-0.0144653422758,-0.0122680747882,0.714763679335,0.699366057729,0.0,0.0,0.0,0.0,0.0,0.0,0.0,0.0,0.0,0.0,0.0,0.0,0.0,0.0,0.0,0.0,0.0,0.0,0.0,0.0,0.0,0.0117187537253,-0.0234375074506,-0.0273437593132,0.0,0.0,0.0,0.0,0.0,0.0,0.0,0.0,0.0
1583763080334224645,278,1583763080160793100,imu,-0.014526377432,-0.0122070396319,0.714757490694,0.699372382567,0.0,0.0,0.0,0.0,0.0,0.0,0.0,0.0,0.0,0.0,0.0,0.0,0.0,0.0,0.0,0.0,0.0,0.0,0.0,0.0,0.0,0.0117187537253,-0.0312500111759,0.0117187537253,0.0,0.0,0.0,0.0,0.0,0.0,0.0,0.0,0.0
1583763080434050584,279,1583763080260793100,imu,-0.014526377432,-0.0122070396319,0.714757490694,0.699372382567,0.0,0.0,0.0,0.0,0.0,0.0,0.0,0.0,0.0,0.0,0.0,0.0,0.0,0.0,0.0,0.0,0.0,0.0,0.0,0.0,0.0,0.0117187537253,-0.0156250055879,-0.0273437593132,0.0,0.0,0.0,0.0,0.0,0.0,0.0,0.0,0.0
1583763080534413262,280,1583763080360793100,imu,-0.0145874125883,-0.0121460044757,0.714751351319,0.699378656943,0.0,0.0,0.0,0.0,0.0,0.0,0.0,0.0,0.0,0.0,0.0,0.0,0.0,0.0,0.0,0.0,0.0,0.0,0.0,0.0,0.0,0.00390625139698,0.0234375074506,0.0117187537253,0.0,0.0,0.0,0.0,0.0,0.0,0.0,0.0,0.0
1583763080634477019,281,1583763080460793100,imu,-0.0146484477445,-0.0121460044757,0.714747969734,0.69938211284,0.0,0.0,0.0,0.0,0.0,0.0,0.0,0.0,0.0,0.0,0.0,0.0,0.0,0.0,0.0,0.0,0.0,0.0,0.0,0.0,0.0,0.00390625139698,0.0156250055879,0.0195312574506,0.0,0.0,0.0,0.0,0.0,0.0,0.0,0.0,0.0
1583763080734330176,282,1583763080560793100,imu,-0.0145874125883,-0.0122070396319,0.714754218303,0.699375726929,0.0,0.0,0.0,0.0,0.0,0.0,0.0,0.0,0.0,0.0,0.0,0.0,0.0,0.0,0.0,0.0,0.0,0.0,0.0,0.0,0.0,0.00390625139698,-0.0234375074506,-0.0195312574506,0.0,0.0,0.0,0.0,0.0,0.0,0.0,0.0,0.0
1583763080834378659,283,1583763080660793100,imu,-0.0145874125883,-0.0122070396319,0.714754170106,0.699375776186,0.0,0.0,0.0,0.0,0.0,0.0,0.0,0.0,0.0,0.0,0.0,0.0,0.0,0.0,0.0,0.0,0.0,0.0,0.0,0.0,0.0,-0.0351562611759,0.0156250055879,0.0195312574506,0.0,0.0,0.0,0.0,0.0,0.0,0.0,0.0,0.0
1583763080935960158,284,1583763080759793100,imu,-0.0146484477445,-0.0122680747882,0.714753621425,0.699376336932,0.0,0.0,0.0,0.0,0.0,0.0,0.0,0.0,0.0,0.0,0.0,0.0,0.0,0.0,0.0,0.0,0.0,0.0,0.0,0.0,0.0,0.00390625139698,-0.0234375074506,-0.0195312574506,0.0,0.0,0.0,0.0,0.0,0.0,0.0,0.0,0.0
1583763081034081910,285,1583763080860793100,imu,-0.0146484477445,-0.0122680747882,0.714753621425,0.699376336932,0.0,0.0,0.0,0.0,0.0,0.0,0.0,0.0,0.0,0.0,0.0,0.0,0.0,0.0,0.0,0.0,0.0,0.0,0.0,0.0,0.0,-0.00390625139698,0.0234375074506,0.0195312574506,0.0,0.0,0.0,0.0,0.0,0.0,0.0,0.0,0.0
1583763081134766175,286,1583763080960793100,imu,-0.0145874125883,-0.0123291099444,0.714759849855,0.699369971499,0.0,0.0,0.0,0.0,0.0,0.0,0.0,0.0,0.0,0.0,0.0,0.0,0.0,0.0,0.0,0.0,0.0,0.0,0.0,0.0,0.0,0.00390625139698,-0.0234375074506,0.0117187537253,0.0,0.0,0.0,0.0,0.0,0.0,0.0,0.0,0.0
1583763081234104396,287,1583763081060793100,imu,-0.0145874125883,-0.0123291099444,0.714759849855,0.699369971499,0.0,0.0,0.0,0.0,0.0,0.0,0.0,0.0,0.0,0.0,0.0,0.0,0.0,0.0,0.0,0.0,0.0,0.0,0.0,0.0,0.0,-0.0351562611759,0.0156250055879,-0.0273437593132,0.0,0.0,0.0,0.0,0.0,0.0,0.0,0.0,0.0
1583763081334892560,288,1583763081160793100,imu,-0.0145874125883,-0.0123291099444,0.714759895786,0.699369924557,0.0,0.0,0.0,0.0,0.0,0.0,0.0,0.0,0.0,0.0,0.0,0.0,0.0,0.0,0.0,0.0,0.0,0.0,0.0,0.0,0.0,-0.0351562611759,-0.0234375074506,0.0117187537253,0.0,0.0,0.0,0.0,0.0,0.0,0.0,0.0,0.0
1583763081434384313,289,1583763081260793100,imu,-0.0146484477445,-0.0122680747882,0.714753669839,0.699376287453,0.0,0.0,0.0,0.0,0.0,0.0,0.0,0.0,0.0,0.0,0.0,0.0,0.0,0.0,0.0,0.0,0.0,0.0,0.0,0.0,0.0,0.0117187537253,0.0156250055879,-0.0273437593132,0.0,0.0,0.0,0.0,0.0,0.0,0.0,0.0,0.0
1583763081534445644,290,1583763081360793100,imu,-0.0146484477445,-0.0122680747882,0.714753669839,0.699376287453,0.0,0.0,0.0,0.0,0.0,0.0,0.0,0.0,0.0,0.0,0.0,0.0,0.0,0.0,0.0,0.0,0.0,0.0,0.0,0.0,0.0,0.00390625139698,0.0156250055879,0.0117187537253,0.0,0.0,0.0,0.0,0.0,0.0,0.0,0.0,0.0
1583763081633886311,291,1583763081460793100,imu,-0.0147094829008,-0.0122680747882,0.71475027558,0.699379756326,0.0,0.0,0.0,0.0,0.0,0.0,0.0,0.0,0.0,0.0,0.0,0.0,0.0,0.0,0.0,0.0,0.0,0.0,0.0,0.0,0.0,-0.00390625139698,-0.0234375074506,0.0117187537253,0.0,0.0,0.0,0.0,0.0,0.0,0.0,0.0,0.0
1583763081734976759,292,1583763081560793100,imu,-0.0146484477445,-0.0123291099444,0.714756468356,0.699373427393,0.0,0.0,0.0,0.0,0.0,0.0,0.0,0.0,0.0,0.0,0.0,0.0,0.0,0.0,0.0,0.0,0.0,0.0,0.0,0.0,0.0,-0.00390625139698,0.0156250055879,-0.0273437593132,0.0,0.0,0.0,0.0,0.0,0.0,0.0,0.0,0.0
1583763081833899473,293,1583763081661793100,imu,-0.0146484477445,-0.012390146032,0.714759329387,0.69937050342,0.0,0.0,0.0,0.0,0.0,0.0,0.0,0.0,0.0,0.0,0.0,0.0,0.0,0.0,0.0,0.0,0.0,0.0,0.0,0.0,0.0,-0.00390625139698,0.0156250055879,0.0117187537253,0.0,0.0,0.0,0.0,0.0,0.0,0.0,0.0,0.0
1583763081935356364,294,1583763081760793100,imu,-0.0146484477445,-0.0124511811882,0.714762204431,0.699367565102,0.0,0.0,0.0,0.0,0.0,0.0,0.0,0.0,0.0,0.0,0.0,0.0,0.0,0.0,0.0,0.0,0.0,0.0,0.0,0.0,0.0,-0.00390625139698,-0.0234375074506,-0.0273437593132,0.0,0.0,0.0,0.0,0.0,0.0,0.0,0.0,0.0
1583763082034311443,295,1583763081859793100,imu,-0.0146484477445,-0.0125122163445,0.714765137369,0.699364567591,0.0,0.0,0.0,0.0,0.0,0.0,0.0,0.0,0.0,0.0,0.0,0.0,0.0,0.0,0.0,0.0,0.0,0.0,0.0,0.0,0.0,-0.00390625139698,-0.0234375074506,0.0195312574506,0.0,0.0,0.0,0.0,0.0,0.0,0.0,0.0,0.0
1583763082134557141,296,1583763081960793100,imu,-0.0147094829008,-0.0125732515007,0.714764645245,0.699365070551,0.0,0.0,0.0,0.0,0.0,0.0,0.0,0.0,0.0,0.0,0.0,0.0,0.0,0.0,0.0,0.0,0.0,0.0,0.0,0.0,0.0,-0.0117187537253,-0.0156250055879,0.0117187537253,0.0,0.0,0.0,0.0,0.0,0.0,0.0,0.0,0.0
1583763082234393876,297,1583763082060793100,imu,-0.014770518057,-0.0126953218132,0.714767083295,0.699362578809,0.0,0.0,0.0,0.0,0.0,0.0,0.0,0.0,0.0,0.0,0.0,0.0,0.0,0.0,0.0,0.0,0.0,0.0,0.0,0.0,0.0,-0.0117187537253,-0.00781250279397,0.0117187537253,0.0,0.0,0.0,0.0,0.0,0.0,0.0,0.0,0.0
1583763082334320804,298,1583763082159793100,imu,-0.014770518057,-0.0127563569695,0.714770027488,0.699359569753,0.0,0.0,0.0,0.0,0.0,0.0,0.0,0.0,0.0,0.0,0.0,0.0,0.0,0.0,0.0,0.0,0.0,0.0,0.0,0.0,0.0,-0.0117187537253,-0.00781250279397,0.00390625139698,0.0,0.0,0.0,0.0,0.0,0.0,0.0,0.0,0.0
1583763082433968767,299,1583763082260793100,imu,-0.014770518057,-0.0127563569695,0.714770027488,0.699359569753,0.0,0.0,0.0,0.0,0.0,0.0,0.0,0.0,0.0,0.0,0.0,0.0,0.0,0.0,0.0,0.0,0.0,0.0,0.0,0.0,0.0,-0.0117187537253,-0.00781250279397,0.0117187537253,0.0,0.0,0.0,0.0,0.0,0.0,0.0,0.0,0.0
1583763082534097274,300,1583763082364807025,imu,-0.014770518057,-0.0127563569695,0.714770027488,0.699359569753,0.0,0.0,0.0,0.0,0.0,0.0,0.0,0.0,0.0,0.0,0.0,0.0,0.0,0.0,0.0,0.0,0.0,0.0,0.0,0.0,0.0,-0.00390625139698,-0.00781250279397,-0.0273437593132,0.0,0.0,0.0,0.0,0.0,0.0,0.0,0.0,0.0
1583763082634439609,301,1583763082464807025,imu,-0.014770518057,-0.0128173921257,0.71477302641,0.699356504737,0.0,0.0,0.0,0.0,0.0,0.0,0.0,0.0,0.0,0.0,0.0,0.0,0.0,0.0,0.0,0.0,0.0,0.0,0.0,0.0,0.0,-0.00390625139698,0.0234375074506,0.0195312574506,0.0,0.0,0.0,0.0,0.0,0.0,0.0,0.0,0.0
1583763082734252871,302,1583763082565807025,imu,-0.014770518057,-0.0128173921257,0.714772985728,0.699356546315,0.0,0.0,0.0,0.0,0.0,0.0,0.0,0.0,0.0,0.0,0.0,0.0,0.0,0.0,0.0,0.0,0.0,0.0,0.0,0.0,0.0,-0.0429687649012,-0.0156250055879,-0.0195312574506,0.0,0.0,0.0,0.0,0.0,0.0,0.0,0.0,0.0
1583763082834043736,303,1583763082665807025,imu,-0.014770518057,-0.0127563569695,0.714770027488,0.699359569753,0.0,0.0,0.0,0.0,0.0,0.0,0.0,0.0,0.0,0.0,0.0,0.0,0.0,0.0,0.0,0.0,0.0,0.0,0.0,0.0,0.0,0.00390625139698,0.0234375074506,0.0195312574506,0.0,0.0,0.0,0.0,0.0,0.0,0.0,0.0,0.0
1583763082934232338,304,1583763082765807025,imu,-0.014770518057,-0.0127563569695,0.714770069349,0.699359526969,0.0,0.0,0.0,0.0,0.0,0.0,0.0,0.0,0.0,0.0,0.0,0.0,0.0,0.0,0.0,0.0,0.0,0.0,0.0,0.0,0.0,-0.00390625139698,0.0234375074506,0.0117187537253,0.0,0.0,0.0,0.0,0.0,0.0,0.0,0.0,0.0
1583763083034366582,305,1583763082865807025,imu,-0.014770518057,-0.0127563569695,0.714770027488,0.699359569753,0.0,0.0,0.0,0.0,0.0,0.0,0.0,0.0,0.0,0.0,0.0,0.0,0.0,0.0,0.0,0.0,0.0,0.0,0.0,0.0,0.0,-0.00390625139698,-0.0234375074506,-0.0273437593132,0.0,0.0,0.0,0.0,0.0,0.0,0.0,0.0,0.0
1583763083134734796,306,1583763082965807025,imu,-0.0147094829008,-0.0128173921257,0.714776393815,0.699353063084,0.0,0.0,0.0,0.0,0.0,0.0,0.0,0.0,0.0,0.0,0.0,0.0,0.0,0.0,0.0,0.0,0.0,0.0,0.0,0.0,0.0,-0.00390625139698,0.0234375074506,0.0117187537253,0.0,0.0,0.0,0.0,0.0,0.0,0.0,0.0,0.0
1583763083234103059,307,1583763083064807025,imu,-0.0147094829008,-0.0128173921257,0.714776393815,0.699353063084,0.0,0.0,0.0,0.0,0.0,0.0,0.0,0.0,0.0,0.0,0.0,0.0,0.0,0.0,0.0,0.0,0.0,0.0,0.0,0.0,0.0,-0.00390625139698,-0.0234375074506,-0.0195312574506,0.0,0.0,0.0,0.0,0.0,0.0,0.0,0.0,0.0
1583763083334141912,308,1583763083165807025,imu,-0.0146484477445,-0.0127563569695,0.714776829641,0.699352617646,0.0,0.0,0.0,0.0,0.0,0.0,0.0,0.0,0.0,0.0,0.0,0.0,0.0,0.0,0.0,0.0,0.0,0.0,0.0,0.0,0.0,-0.0429687649012,-0.0234375074506,0.0195312574506,0.0,0.0,0.0,0.0,0.0,0.0,0.0,0.0,0.0
1583763083433983447,309,1583763083265807025,imu,-0.0147094829008,-0.012634286657,0.714765826273,0.699363863516,0.0,0.0,0.0,0.0,0.0,0.0,0.0,0.0,0.0,0.0,0.0,0.0,0.0,0.0,0.0,0.0,0.0,0.0,0.0,0.0,0.0,-0.0351562611759,0.0156250055879,0.0195312574506,0.0,0.0,0.0,0.0,0.0,0.0,0.0,0.0,0.0
1583763083534356197,310,1583763083365807025,imu,-0.0146484477445,-0.0122680747882,0.714744735314,0.699385418307,0.0,0.0,0.0,0.0,0.0,0.0,0.0,0.0,0.0,0.0,0.0,0.0,0.0,0.0,0.0,0.0,0.0,0.0,0.0,0.0,0.0,-0.132812544703,0.0820312798023,0.0195312574506,0.0,0.0,0.0,0.0,0.0,0.0,0.0,0.0,0.0
1583763083635120596,311,1583763083465807025,imu,-0.0148925883695,-0.0115356529132,0.714683343034,0.699448153325,0.0,0.0,0.0,0.0,0.0,0.0,0.0,0.0,0.0,0.0,0.0,0.0,0.0,0.0,0.0,0.0,0.0,0.0,0.0,0.0,0.0,-0.0937500298023,0.00781250279397,0.0117187537253,0.0,0.0,0.0,0.0,0.0,0.0,0.0,0.0,0.0
1583763083734144508,312,1583763083565807025,imu,-0.0150146596134,-0.0106811597943,0.714617224227,0.699515705926,0.0,0.0,0.0,0.0,0.0,0.0,0.0,0.0,0.0,0.0,0.0,0.0,0.0,0.0,0.0,0.0,0.0,0.0,0.0,0.0,0.0,0.160156309605,0.0468750149012,-0.0273437593132,0.0,0.0,0.0,0.0,0.0,0.0,0.0,0.0,0.0
1583763083834146468,313,1583763083664807025,imu,-0.0151367299259,-0.0102539137006,0.71456659427,0.699567425166,0.0,0.0,0.0,0.0,0.0,0.0,0.0,0.0,0.0,0.0,0.0,0.0,0.0,0.0,0.0,0.0,0.0,0.0,0.0,0.0,0.0,-0.0546875186265,-0.0312500111759,-0.0195312574506,0.0,0.0,0.0,0.0,0.0,0.0,0.0,0.0,0.0
1583763083934766814,314,1583763083765807025,imu,-0.0151977650821,-0.00970459636301,0.714506599499,0.699628701007,0.0,0.0,0.0,0.0,0.0,0.0,0.0,0.0,0.0,0.0,0.0,0.0,0.0,0.0,0.0,0.0,0.0,0.0,0.0,0.0,0.0,0.0429687649012,0.0,0.0195312574506,0.0,0.0,0.0,0.0,0.0,0.0,0.0,0.0,0.0
1583763084033802722,315,1583763083864807025,imu,-0.0152588002384,-0.00933838542551,0.714451976682,0.699684481045,0.0,0.0,0.0,0.0,0.0,0.0,0.0,0.0,0.0,0.0,0.0,0.0,0.0,0.0,0.0,0.0,0.0,0.0,0.0,0.0,0.0,0.0351562611759,-0.0390625149012,-0.0195312574506,0.0,0.0,0.0,0.0,0.0,0.0,0.0,0.0,0.0
1583763084134177782,316,1583763083964807025,imu,-0.0152588002384,-0.00903320964426,0.714399746248,0.69973780987,0.0,0.0,0.0,0.0,0.0,0.0,0.0,0.0,0.0,0.0,0.0,0.0,0.0,0.0,0.0,0.0,0.0,0.0,0.0,0.0,0.0,0.0664062723517,0.0,0.0195312574506,0.0,0.0,0.0,0.0,0.0,0.0,0.0,0.0,0.0
1583763084234191067,317,1583763084065807025,imu,-0.0152588002384,-0.00891113933176,0.714350926785,0.699787648792,0.0,0.0,0.0,0.0,0.0,0.0,0.0,0.0,0.0,0.0,0.0,0.0,0.0,0.0,0.0,0.0,0.0,0.0,0.0,0.0,0.0,0.0273437593132,-0.00781250279397,-0.0195312574506,0.0,0.0,0.0,0.0,0.0,0.0,0.0,0.0,0.0
1583763084334365572,318,1583763084105807025,imu,-0.0152588002384,-0.00891113933176,0.714350926785,0.699787648792,0.0,0.0,0.0,0.0,0.0,0.0,0.0,0.0,0.0,0.0,0.0,0.0,0.0,0.0,0.0,0.0,0.0,0.0,0.0,0.0,0.0,-0.0625000223517,0.00781250279397,-0.0351562611759,0.0,0.0,0.0,0.0,0.0,0.0,0.0,0.0,0.0
1583763084434090787,319,1583763084265807025,imu,-0.0155029408634,-0.00897217448801,0.714221576881,0.699919666189,0.0,0.0,0.0,0.0,0.0,0.0,0.0,0.0,0.0,0.0,0.0,0.0,0.0,0.0,0.0,0.0,0.0,0.0,0.0,0.0,0.0,-0.0117187537253,0.00781250279397,0.0195312574506,0.0,0.0,0.0,0.0,0.0,0.0,0.0,0.0,0.0
1583763084534115887,320,1583763084365807025,imu,-0.0156250111759,-0.00891113933176,0.714128733131,0.700014394506,0.0,0.0,0.0,0.0,0.0,0.0,0.0,0.0,0.0,0.0,0.0,0.0,0.0,0.0,0.0,0.0,0.0,0.0,0.0,0.0,0.0,0.0273437593132,-0.0312500111759,0.0195312574506,0.0,0.0,0.0,0.0,0.0,0.0,0.0,0.0,0.0
1583763084634818576,321,1583763084465807025,imu,-0.0156860463321,-0.00885010417551,0.714026626193,0.700118545025,0.0,0.0,0.0,0.0,0.0,0.0,0.0,0.0,0.0,0.0,0.0,0.0,0.0,0.0,0.0,0.0,0.0,0.0,0.0,0.0,0.0,-0.0781250298023,0.00781250279397,-0.0273437593132,0.0,0.0,0.0,0.0,0.0,0.0,0.0,0.0,0.0
1583763084734253324,322,1583763084565807025,imu,-0.0156250111759,-0.00872803386301,0.713921613272,0.700225627996,0.0,0.0,0.0,0.0,0.0,0.0,0.0,0.0,0.0,0.0,0.0,0.0,0.0,0.0,0.0,0.0,0.0,0.0,0.0,0.0,0.0,0.0117187537253,0.00781250279397,0.0117187537253,0.0,0.0,0.0,0.0,0.0,0.0,0.0,0.0,0.0
1583763084834343838,323,1583763084665807025,imu,-0.0156860463321,-0.00866699870676,0.713780945697,0.700369018133,0.0,0.0,0.0,0.0,0.0,0.0,0.0,0.0,0.0,0.0,0.0,0.0,0.0,0.0,0.0,0.0,0.0,0.0,0.0,0.0,0.0,-0.0390625149012,-0.0390625149012,-0.0273437593132,0.0,0.0,0.0,0.0,0.0,0.0,0.0,0.0,0.0
1583763084934191397,324,1583763084764807025,imu,-0.0156860463321,-0.00860596355051,0.713620302178,0.700532700392,0.0,0.0,0.0,0.0,0.0,0.0,0.0,0.0,0.0,0.0,0.0,0.0,0.0,0.0,0.0,0.0,0.0,0.0,0.0,0.0,0.0,-0.00390625139698,0.0,0.0117187537253,0.0,0.0,0.0,0.0,0.0,0.0,0.0,0.0,0.0
1583763085034182021,325,1583763084873952114,imu,-0.0156250111759,-0.00848389323801,0.713432639722,0.700723817619,0.0,0.0,0.0,0.0,0.0,0.0,0.0,0.0,0.0,0.0,0.0,0.0,0.0,0.0,0.0,0.0,0.0,0.0,0.0,0.0,0.0,-0.0468750149012,0.0,-0.0273437593132,0.0,0.0,0.0,0.0,0.0,0.0,0.0,0.0,0.0
1583763085134551661,326,1583763084973952114,imu,-0.0156250111759,-0.00830078683794,0.713168510111,0.700992636328,0.0,0.0,0.0,0.0,0.0,0.0,0.0,0.0,0.0,0.0,0.0,0.0,0.0,0.0,0.0,0.0,0.0,0.0,0.0,0.0,0.0,-0.0390625149012,-0.0156250055879,-0.0273437593132,0.0,0.0,0.0,0.0,0.0,0.0,0.0,0.0,0.0
1583763085233998322,327,1583763085072952114,imu,-0.0156250111759,-0.00811768136919,0.712832635856,0.701334180871,0.0,0.0,0.0,0.0,0.0,0.0,0.0,0.0,0.0,0.0,0.0,0.0,0.0,0.0,0.0,0.0,0.0,0.0,0.0,0.0,0.0,-0.00390625139698,-0.00781250279397,0.0117187537253,0.0,0.0,0.0,0.0,0.0,0.0,0.0,0.0,0.0
1583763085334741500,328,1583763085173952114,imu,-0.0156860463321,-0.00811768136919,0.712409069146,0.701764432127,0.0,0.0,0.0,0.0,0.0,0.0,0.0,0.0,0.0,0.0,0.0,0.0,0.0,0.0,0.0,0.0,0.0,0.0,0.0,0.0,0.0,-0.00390625139698,-0.00781250279397,-0.0273437593132,0.0,0.0,0.0,0.0,0.0,0.0,0.0,0.0,0.0
1583763085434083853,329,1583763085272952114,imu,-0.0156860463321,-0.00817871652544,0.711898424678,0.702282445275,0.0,0.0,0.0,0.0,0.0,0.0,0.0,0.0,0.0,0.0,0.0,0.0,0.0,0.0,0.0,0.0,0.0,0.0,0.0,0.0,0.0,-0.0117187537253,-0.00781250279397,0.0195312574506,0.0,0.0,0.0,0.0,0.0,0.0,0.0,0.0,0.0
1583763085534728759,330,1583763085372952114,imu,-0.0158691518009,-0.00817871652544,0.711063057496,0.703128244536,0.0,0.0,0.0,0.0,0.0,0.0,0.0,0.0,0.0,0.0,0.0,0.0,0.0,0.0,0.0,0.0,0.0,0.0,0.0,0.0,0.0,-0.0117187537253,0.0,0.0195312574506,0.0,0.0,0.0,0.0,0.0,0.0,0.0,0.0,0.0
1583763085634095033,331,1583763085473952114,imu,-0.0159301869571,-0.00805664621294,0.709917820562,0.704284522085,0.0,0.0,0.0,0.0,0.0,0.0,0.0,0.0,0.0,0.0,0.0,0.0,0.0,0.0,0.0,0.0,0.0,0.0,0.0,0.0,0.0,-0.0117187537253,0.0,-0.0273437593132,0.0,0.0,0.0,0.0,0.0,0.0,0.0,0.0,0.0
1583763085734259377,332,1583763085572952114,imu,-0.0160522572696,-0.00799561105669,0.708196633496,0.70601524651,0.0,0.0,0.0,0.0,0.0,0.0,0.0,0.0,0.0,0.0,0.0,0.0,0.0,0.0,0.0,0.0,0.0,0.0,0.0,0.0,0.0,0.0273437593132,0.0,0.0195312574506,0.0,0.0,0.0,0.0,0.0,0.0,0.0,0.0,0.0
1583763085834074921,333,1583763085672952114,imu,-0.0161743275821,-0.00787354074419,0.705411134063,0.708798371852,0.0,0.0,0.0,0.0,0.0,0.0,0.0,0.0,0.0,0.0,0.0,0.0,0.0,0.0,0.0,0.0,0.0,0.0,0.0,0.0,0.0,-0.0117187537253,0.0,-0.0195312574506,0.0,0.0,0.0,0.0,0.0,0.0,0.0,0.0,0.0
1583763085934424057,334,1583763085773952114,imu,-0.0161743275821,-0.00769043527544,0.701031030729,0.713130769182,0.0,0.0,0.0,0.0,0.0,0.0,0.0,0.0,0.0,0.0,0.0,0.0,0.0,0.0,0.0,0.0,0.0,0.0,0.0,0.0,0.0,-0.0117187537253,-0.0390625149012,-0.0195312574506,0.0,0.0,0.0,0.0,0.0,0.0,0.0,0.0,0.0
1583763086034061164,335,1583763085872952114,imu,-0.0162963978946,-0.00744629418477,0.691990651112,0.721906461235,0.0,0.0,0.0,0.0,0.0,0.0,0.0,0.0,0.0,0.0,0.0,0.0,0.0,0.0,0.0,0.0,0.0,0.0,0.0,0.0,0.0,0.0195312574506,-0.00781250279397,0.0195312574506,0.0,0.0,0.0,0.0,0.0,0.0,0.0,0.0,0.0
1583763086134699390,336,1583763085972952114,imu,-0.0164184682071,-0.00720215355977,0.672050844772,0.740505004737,0.0,0.0,0.0,0.0,0.0,0.0,0.0,0.0,0.0,0.0,0.0,0.0,0.0,0.0,0.0,0.0,0.0,0.0,0.0,0.0,0.0,-0.00390625139698,0.00781250279397,0.0117187537253,0.0,0.0,0.0,0.0,0.0,0.0,0.0,0.0,0.0
1583763086234638204,337,1583763086073952114,imu,-0.0164795033634,-0.00701904809102,0.620778181609,0.783986255771,0.0,0.0,0.0,0.0,0.0,0.0,0.0,0.0,0.0,0.0,0.0,0.0,0.0,0.0,0.0,0.0,0.0,0.0,0.0,0.0,0.0,-0.00390625139698,0.00781250279397,0.0117187537253,0.0,0.0,0.0,0.0,0.0,0.0,0.0,0.0,0.0
1583763086334489502,338,1583763086172952114,imu,-0.0165405385196,-0.00695801293477,0.491911027846,0.87064547359,0.0,0.0,0.0,0.0,0.0,0.0,0.0,0.0,0.0,0.0,0.0,0.0,0.0,0.0,0.0,0.0,0.0,0.0,0.0,0.0,0.0,-0.00390625139698,0.0,0.00390625139698,0.0,0.0,0.0,0.0,0.0,0.0,0.0,0.0,0.0
1583763086434192150,339,1583763086272952114,imu,-0.0165405385196,-0.00689697777852,0.395463835089,0.91848154861,0.0,0.0,0.0,0.0,0.0,0.0,0.0,0.0,0.0,0.0,0.0,0.0,0.0,0.0,0.0,0.0,0.0,0.0,0.0,0.0,0.0,0.0273437593132,-0.00781250279397,0.00390625139698,0.0,0.0,0.0,0.0,0.0,0.0,0.0,0.0,0.0
1583763086534159631,340,1583763086373952114,imu,-0.0166626088321,-0.00665283668786,0.544539941461,0.838734911729,0.0,0.0,0.0,0.0,0.0,0.0,0.0,0.0,0.0,0.0,0.0,0.0,0.0,0.0,0.0,0.0,0.0,0.0,0.0,0.0,0.0,-0.0546875186265,-0.00781250279397,0.00390625139698,0.0,0.0,0.0,0.0,0.0,0.0,0.0,0.0,0.0
1583763086634017582,341,1583763086473952114,imu,-0.0169067494571,-0.00640869606286,0.642206324929,0.766531823359,0.0,0.0,0.0,0.0,0.0,0.0,0.0,0.0,0.0,0.0,0.0,0.0,0.0,0.0,0.0,0.0,0.0,0.0,0.0,0.0,0.0,-0.0390625149012,-0.0703125223517,0.00390625139698,0.0,0.0,0.0,0.0,0.0,0.0,0.0,0.0,0.0
1583763086733975872,342,1583763086572952114,imu,-0.016967786476,-0.00610351981595,0.67654257066,0.73640352395,0.0,0.0,0.0,0.0,0.0,0.0,0.0,0.0,0.0,0.0,0.0,0.0,0.0,0.0,0.0,0.0,0.0,0.0,0.0,0.0,0.0,0.0507812686265,0.0156250055879,0.00390625139698,0.0,0.0,0.0,0.0,0.0,0.0,0.0,0.0,0.0
1583763086834294934,343,1583763086673952114,imu,-0.0170898567885,-0.0059204143472,0.691504110511,0.722372525188,0.0,0.0,0.0,0.0,0.0,0.0,0.0,0.0,0.0,0.0,0.0,0.0,0.0,0.0,0.0,0.0,0.0,0.0,0.0,0.0,0.0,0.0117187537253,0.00781250279397,-0.0351562611759,0.0,0.0,0.0,0.0,0.0,0.0,0.0,0.0,0.0
1583763086934147762,344,1583763086772952114,imu,-0.0170898567885,-0.0056762737222,0.699401964023,0.714728544778,0.0,0.0,0.0,0.0,0.0,0.0,0.0,0.0,0.0,0.0,0.0,0.0,0.0,0.0,0.0,0.0,0.0,0.0,0.0,0.0,0.0,0.0117187537253,0.00781250279397,0.0117187537253,0.0,0.0,0.0,0.0,0.0,0.0,0.0,0.0,0.0
1583763087034199390,345,1583763086872952114,imu,-0.0170898567885,-0.00537109747529,0.703883731843,0.710315206121,0.0,0.0,0.0,0.0,0.0,0.0,0.0,0.0,0.0,0.0,0.0,0.0,0.0,0.0,0.0,0.0,0.0,0.0,0.0,0.0,0.0,0.00390625139698,-0.0703125223517,-0.0273437593132,0.0,0.0,0.0,0.0,0.0,0.0,0.0,0.0,0.0
1583763087134224219,346,1583763086973952114,imu,-0.0170288216323,-0.00506592169404,0.706718344863,0.707495004247,0.0,0.0,0.0,0.0,0.0,0.0,0.0,0.0,0.0,0.0,0.0,0.0,0.0,0.0,0.0,0.0,0.0,0.0,0.0,0.0,0.0,0.0507812686265,0.0156250055879,0.0117187537253,0.0,0.0,0.0,0.0,0.0,0.0,0.0,0.0,0.0
1583763087234204538,347,1583763087072952114,imu,-0.016967786476,-0.00482178060338,0.708599360242,0.705611044885,0.0,0.0,0.0,0.0,0.0,0.0,0.0,0.0,0.0,0.0,0.0,0.0,0.0,0.0,0.0,0.0,0.0,0.0,0.0,0.0,0.0,-0.0312500111759,0.00781250279397,0.0117187537253,0.0,0.0,0.0,0.0,0.0,0.0,0.0,0.0,0.0
1583763087334312118,348,1583763087172952114,imu,-0.016967786476,-0.00451660482213,0.709850046613,0.704352831558,0.0,0.0,0.0,0.0,0.0,0.0,0.0,0.0,0.0,0.0,0.0,0.0,0.0,0.0,0.0,0.0,0.0,0.0,0.0,0.0,0.0,0.00390625139698,-0.0312500111759,-0.0273437593132,0.0,0.0,0.0,0.0,0.0,0.0,0.0,0.0,0.0
1583763087434050912,349,1583763087212952114,imu,-0.016967786476,-0.00451660482213,0.709850046613,0.704352831558,0.0,0.0,0.0,0.0,0.0,0.0,0.0,0.0,0.0,0.0,0.0,0.0,0.0,0.0,0.0,0.0,0.0,0.0,0.0,0.0,0.0,-0.0312500111759,-0.0390625149012,0.0117187537253,0.0,0.0,0.0,0.0,0.0,0.0,0.0,0.0,0.0
1583763087534271758,350,1583763087374896106,imu,-0.016967786476,-0.00396728795022,0.71144184878,0.702744972095,0.0,0.0,0.0,0.0,0.0,0.0,0.0,0.0,0.0,0.0,0.0,0.0,0.0,0.0,0.0,0.0,0.0,0.0,0.0,0.0,0.0,0.0117187537253,0.00781250279397,-0.0273437593132,0.0,0.0,0.0,0.0,0.0,0.0,0.0,0.0,0.0
1583763087633936271,351,1583763087475896106,imu,-0.0170898567885,-0.00378418248147,0.711920030618,0.702260542822,0.0,0.0,0.0,0.0,0.0,0.0,0.0,0.0,0.0,0.0,0.0,0.0,0.0,0.0,0.0,0.0,0.0,0.0,0.0,0.0,0.0,-0.0625000223517,0.00781250279397,-0.0195312574506,0.0,0.0,0.0,0.0,0.0,0.0,0.0,0.0,0.0
1583763087734109815,352,1583763087574896106,imu,-0.016967786476,-0.00347900646739,0.712377591644,0.701796385659,0.0,0.0,0.0,0.0,0.0,0.0,0.0,0.0,0.0,0.0,0.0,0.0,0.0,0.0,0.0,0.0,0.0,0.0,0.0,0.0,0.0,-0.0703125223517,0.0468750149012,0.0195312574506,0.0,0.0,0.0,0.0,0.0,0.0,0.0,0.0,0.0
1583763087834335113,353,1583763087674896106,imu,-0.0169067494571,-0.00323486560956,0.712716816549,0.70145187961,0.0,0.0,0.0,0.0,0.0,0.0,0.0,0.0,0.0,0.0,0.0,0.0,0.0,0.0,0.0,0.0,0.0,0.0,0.0,0.0,0.0,-0.0156250055879,-0.0390625149012,-0.0195312574506,0.0,0.0,0.0,0.0,0.0,0.0,0.0,0.0,0.0
1583763087934172397,354,1583763087775896106,imu,-0.0169067494571,-0.00299072475173,0.712972679282,0.701191812985,0.0,0.0,0.0,0.0,0.0,0.0,0.0,0.0,0.0,0.0,0.0,0.0,0.0,0.0,0.0,0.0,0.0,0.0,0.0,0.0,0.0,-0.0234375074506,0.0390625149012,0.0195312574506,0.0,0.0,0.0,0.0,0.0,0.0,0.0,0.0,0.0
1583763088034461186,355,1583763087874896106,imu,-0.0169067494571,-0.00268554873765,0.71318807256,0.700972733534,0.0,0.0,0.0,0.0,0.0,0.0,0.0,0.0,0.0,0.0,0.0,0.0,0.0,0.0,0.0,0.0,0.0,0.0,0.0,0.0,0.0,-0.0234375074506,0.0,0.0117187537253,0.0,0.0,0.0,0.0,0.0,0.0,0.0,0.0,0.0
1583763088134172936,356,1583763087974896106,imu,-0.016967786476,-0.00231933756731,0.71335923611,0.700798544702,0.0,0.0,0.0,0.0,0.0,0.0,0.0,0.0,0.0,0.0,0.0,0.0,0.0,0.0,0.0,0.0,0.0,0.0,0.0,0.0,0.0,-0.0234375074506,-0.00781250279397,-0.0273437593132,0.0,0.0,0.0,0.0,0.0,0.0,0.0,0.0,0.0
1583763088234070971,357,1583763088075896106,imu,-0.016967786476,-0.00201416155323,0.713514565532,0.70064039619,0.0,0.0,0.0,0.0,0.0,0.0,0.0,0.0,0.0,0.0,0.0,0.0,0.0,0.0,0.0,0.0,0.0,0.0,0.0,0.0,0.0,-0.0546875186265,0.0,0.0117187537253,0.0,0.0,0.0,0.0,0.0,0.0,0.0,0.0,0.0
1583763088334570137,358,1583763088174896106,imu,-0.016967786476,-0.00189209124073,0.713642983594,0.700509594486,0.0,0.0,0.0,0.0,0.0,0.0,0.0,0.0,0.0,0.0,0.0,0.0,0.0,0.0,0.0,0.0,0.0,0.0,0.0,0.0,0.0,0.0585937723517,0.0,-0.0273437593132,0.0,0.0,0.0,0.0,0.0,0.0,0.0,0.0,0.0
1583763088433973813,359,1583763088274896106,imu,-0.016967786476,-0.00177002081182,0.713750112629,0.700400440264,0.0,0.0,0.0,0.0,0.0,0.0,0.0,0.0,0.0,0.0,0.0,0.0,0.0,0.0,0.0,0.0,0.0,0.0,0.0,0.0,0.0,0.0117187537253,0.0312500111759,0.0195312574506,0.0,0.0,0.0,0.0,0.0,0.0,0.0,0.0,0.0
1583763088534392535,360,1583763088375896106,imu,-0.0170898567885,-0.00158691522665,0.713831506971,0.700317484899,0.0,0.0,0.0,0.0,0.0,0.0,0.0,0.0,0.0,0.0,0.0,0.0,0.0,0.0,0.0,0.0,0.0,0.0,0.0,0.0,0.0,-0.0703125223517,-0.00781250279397,0.0117187537253,0.0,0.0,0.0,0.0,0.0,0.0,0.0,0.0,0.0
1583763088634205681,361,1583763088474896106,imu,-0.0171508919448,-0.00140380964149,0.713909411825,0.700238067879,0.0,0.0,0.0,0.0,0.0,0.0,0.0,0.0,0.0,0.0,0.0,0.0,0.0,0.0,0.0,0.0,0.0,0.0,0.0,0.0,0.0,-0.0625000223517,-0.0468750149012,-0.0273437593132,0.0,0.0,0.0,0.0,0.0,0.0,0.0,0.0,0.0
1583763088734224253,362,1583763088574896106,imu,-0.0170898567885,-0.00103759835474,0.713993097636,0.700152738,0.0,0.0,0.0,0.0,0.0,0.0,0.0,0.0,0.0,0.0,0.0,0.0,0.0,0.0,0.0,0.0,0.0,0.0,0.0,0.0,0.0,-0.125000044703,0.0,0.0117187537253,0.0,0.0,0.0,0.0,0.0,0.0,0.0,0.0,0.0
1583763088834308637,363,1583763088674896106,imu,-0.0171508919448,-0.000610352028161,0.714057090164,0.700087474524,0.0,0.0,0.0,0.0,0.0,0.0,0.0,0.0,0.0,0.0,0.0,0.0,0.0,0.0,0.0,0.0,0.0,0.0,0.0,0.0,0.0,0.0429687649012,-0.0703125223517,0.00390625139698,0.0,0.0,0.0,0.0,0.0,0.0,0.0,0.0,0.0
1583763088936298515,364,1583763088775896106,imu,-0.017211927101,-0.000183105599717,0.714113391252,0.70003004538,0.0,0.0,0.0,0.0,0.0,0.0,0.0,0.0,0.0,0.0,0.0,0.0,0.0,0.0,0.0,0.0,0.0,0.0,0.0,0.0,0.0,0.0156250055879,0.0156250055879,-0.00390625139698,0.0,0.0,0.0,0.0,0.0,0.0,0.0,0.0,0.0
1583763089034035779,365,1583763088874896106,imu,-0.0173339974135,0.000122070399811,0.714160718446,0.699981762783,0.0,0.0,0.0,0.0,0.0,0.0,0.0,0.0,0.0,0.0,0.0,0.0,0.0,0.0,0.0,0.0,0.0,0.0,0.0,0.0,0.0,-0.0312500111759,0.00781250279397,-0.00390625139698,0.0,0.0,0.0,0.0,0.0,0.0,0.0,0.0,0.0
1583763089134607749,366,1583763088975896106,imu,-0.0173950325698,0.000488281599246,0.714206396704,0.699935156216,0.0,0.0,0.0,0.0,0.0,0.0,0.0,0.0,0.0,0.0,0.0,0.0,0.0,0.0,0.0,0.0,0.0,0.0,0.0,0.0,0.0,-0.0312500111759,0.0156250055879,-0.00390625139698,0.0,0.0,0.0,0.0,0.0,0.0,0.0,0.0,0.0
1583763089234014485,367,1583763089074896106,imu,-0.0173950325698,0.000793457613327,0.714253619365,0.699886967463,0.0,0.0,0.0,0.0,0.0,0.0,0.0,0.0,0.0,0.0,0.0,0.0,0.0,0.0,0.0,0.0,0.0,0.0,0.0,0.0,0.0,-0.0625000223517,0.00781250279397,0.00390625139698,0.0,0.0,0.0,0.0,0.0,0.0,0.0,0.0,0.0
1583763089334609960,368,1583763089174896106,imu,-0.0172729622573,0.00109863362741,0.714303863524,0.699835688255,0.0,0.0,0.0,0.0,0.0,0.0,0.0,0.0,0.0,0.0,0.0,0.0,0.0,0.0,0.0,0.0,0.0,0.0,0.0,0.0,0.0,0.0429687649012,-0.0312500111759,0.00390625139698,0.0,0.0,0.0,0.0,0.0,0.0,0.0,0.0,0.0
1583763089434091658,369,1583763089274896106,imu,-0.0171508919448,0.00134277436882,0.714349190886,0.699789420812,0.0,0.0,0.0,0.0,0.0,0.0,0.0,0.0,0.0,0.0,0.0,0.0,0.0,0.0,0.0,0.0,0.0,0.0,0.0,0.0,0.0,0.00781250279397,-0.0390625149012,0.00390625139698,0.0,0.0,0.0,0.0,0.0,0.0,0.0,0.0,0.0
1583763089534425555,370,1583763089374896106,imu,-0.0171508919448,0.00170898553915,0.714379513173,0.699758466301,0.0,0.0,0.0,0.0,0.0,0.0,0.0,0.0,0.0,0.0,0.0,0.0,0.0,0.0,0.0,0.0,0.0,0.0,0.0,0.0,0.0,-0.0312500111759,0.0,0.0507812686265,0.0,0.0,0.0,0.0,0.0,0.0,0.0,0.0,0.0
1583763089634627715,371,1583763089474896106,imu,-0.017211927101,0.00177002081182,0.714390155305,0.699747601642,0.0,0.0,0.0,0.0,0.0,0.0,0.0,0.0,0.0,0.0,0.0,0.0,0.0,0.0,0.0,0.0,0.0,0.0,0.0,0.0,0.0,0.0898437798023,-0.0312500111759,-0.0351562611759,0.0,0.0,0.0,0.0,0.0,0.0,0.0,0.0,0.0
1583763089734210497,372,1583763089575896106,imu,-0.0173950325698,0.00152587995399,0.714379649566,0.699758327057,0.0,0.0,0.0,0.0,0.0,0.0,0.0,0.0,0.0,0.0,0.0,0.0,0.0,0.0,0.0,0.0,0.0,0.0,0.0,0.0,0.0,0.152343809605,0.0156250055879,0.0117187537253,0.0,0.0,0.0,0.0,0.0,0.0,0.0,0.0,0.0
1583763089834065509,373,1583763089674896106,imu,-0.017700208351,0.00115966878366,0.714361334417,0.699777024409,0.0,0.0,0.0,0.0,0.0,0.0,0.0,0.0,0.0,0.0,0.0,0.0,0.0,0.0,0.0,0.0,0.0,0.0,0.0,0.0,0.0,0.0664062723517,-0.0234375074506,0.0117187537253,0.0,0.0,0.0,0.0,0.0,0.0,0.0,0.0,0.0
1583763089934251171,374,1583763089774896106,imu,-0.0178222786635,0.000915527984034,0.714355891238,0.699782580987,0.0,0.0,0.0,0.0,0.0,0.0,0.0,0.0,0.0,0.0,0.0,0.0,0.0,0.0,0.0,0.0,0.0,0.0,0.0,0.0,0.0,-0.203125074506,0.0898437798023,0.0117187537253,0.0,0.0,0.0,0.0,0.0,0.0,0.0,0.0,0.0
1583763090034135244,375,1583763089874896106,imu,-0.0178833138198,0.000854492769577,0.714353309149,0.69978521684,0.0,0.0,0.0,0.0,0.0,0.0,0.0,0.0,0.0,0.0,0.0,0.0,0.0,0.0,0.0,0.0,0.0,0.0,0.0,0.0,0.0,-0.164062559605,0.0156250055879,0.0117187537253,0.0,0.0,0.0,0.0,0.0,0.0,0.0,0.0,0.0
1583763090134284786,376,1583763089979286090,imu,-0.017944348976,0.000976563198492,0.714350476012,0.699788108946,0.0,0.0,0.0,0.0,0.0,0.0,0.0,0.0,0.0,0.0,0.0,0.0,0.0,0.0,0.0,0.0,0.0,0.0,0.0,0.0,0.0,0.0585937723517,-0.0156250055879,-0.0195312574506,0.0,0.0,0.0,0.0,0.0,0.0,0.0,0.0,0.0
1583763090234028837,377,1583763090079286090,imu,-0.0180664192885,0.000976563198492,0.714343683925,0.699795042306,0.0,0.0,0.0,0.0,0.0,0.0,0.0,0.0,0.0,0.0,0.0,0.0,0.0,0.0,0.0,0.0,0.0,0.0,0.0,0.0,0.0,-0.0546875186265,-0.0156250055879,0.0195312574506,0.0,0.0,0.0,0.0,0.0,0.0,0.0,0.0,0.0
1583763090334151995,378,1583763090179286090,imu,-0.0180664192885,0.00109863362741,0.714344086918,0.699794630935,0.0,0.0,0.0,0.0,0.0,0.0,0.0,0.0,0.0,0.0,0.0,0.0,0.0,0.0,0.0,0.0,0.0,0.0,0.0,0.0,0.0,-0.0468750149012,0.0156250055879,-0.0195312574506,0.0,0.0,0.0,0.0,0.0,0.0,0.0,0.0,0.0
1583763090433939713,379,1583763090279286090,imu,-0.0180053841323,0.00128173921257,0.714348574613,0.699790049907,0.0,0.0,0.0,0.0,0.0,0.0,0.0,0.0,0.0,0.0,0.0,0.0,0.0,0.0,0.0,0.0,0.0,0.0,0.0,0.0,0.0,-0.0468750149012,-0.0234375074506,0.0195312574506,0.0,0.0,0.0,0.0,0.0,0.0,0.0,0.0,0.0
1583763090534211728,380,1583763090378286090,imu,-0.017944348976,0.00152587995399,0.714353449363,0.699785073707,0.0,0.0,0.0,0.0,0.0,0.0,0.0,0.0,0.0,0.0,0.0,0.0,0.0,0.0,0.0,0.0,0.0,0.0,0.0,0.0,0.0,-0.0156250055879,-0.0312500111759,0.0117187537253,0.0,0.0,0.0,0.0,0.0,0.0,0.0,0.0,0.0
1583763090634082277,381,1583763090480286090,imu,-0.0178833138198,0.00183105596807,0.714358665606,0.699779748831,0.0,0.0,0.0,0.0,0.0,0.0,0.0,0.0,0.0,0.0,0.0,0.0,0.0,0.0,0.0,0.0,0.0,0.0,0.0,0.0,0.0,-0.00781250279397,0.0156250055879,-0.0273437593132,0.0,0.0,0.0,0.0,0.0,0.0,0.0,0.0,0.0
1583763090734353126,382,1583763090579286090,imu,-0.0178833138198,0.00207519670948,0.714360201695,0.699778180736,0.0,0.0,0.0,0.0,0.0,0.0,0.0,0.0,0.0,0.0,0.0,0.0,0.0,0.0,0.0,0.0,0.0,0.0,0.0,0.0,0.0,-0.00781250279397,0.00781250279397,-0.0195312574506,0.0,0.0,0.0,0.0,0.0,0.0,0.0,0.0,0.0
1583763090834213524,383,1583763090680286090,imu,-0.0178222786635,0.00225830241106,0.71436503992,0.699773241658,0.0,0.0,0.0,0.0,0.0,0.0,0.0,0.0,0.0,0.0,0.0,0.0,0.0,0.0,0.0,0.0,0.0,0.0,0.0,0.0,0.0,-0.00781250279397,0.0156250055879,0.0195312574506,0.0,0.0,0.0,0.0,0.0,0.0,0.0,0.0,0.0
1583763090934270699,384,1583763090780286090,imu,-0.0177612435073,0.00244140811265,0.714369975801,0.699768202817,0.0,0.0,0.0,0.0,0.0,0.0,0.0,0.0,0.0,0.0,0.0,0.0,0.0,0.0,0.0,0.0,0.0,0.0,0.0,0.0,0.0,0.0,-0.0234375074506,-0.0195312574506,0.0,0.0,0.0,0.0,0.0,0.0,0.0,0.0,0.0
1583763091034142325,385,1583763090879286090,imu,-0.0177612435073,0.00268554873765,0.71437199916,0.699766137232,0.0,0.0,0.0,0.0,0.0,0.0,0.0,0.0,0.0,0.0,0.0,0.0,0.0,0.0,0.0,0.0,0.0,0.0,0.0,0.0,0.0,0.0,0.0156250055879,0.0195312574506,0.0,0.0,0.0,0.0,0.0,0.0,0.0,0.0,0.0
1583763091134266313,386,1583763090918286090,imu,-0.0177612435073,0.00268554873765,0.71437199916,0.699766137232,0.0,0.0,0.0,0.0,0.0,0.0,0.0,0.0,0.0,0.0,0.0,0.0,0.0,0.0,0.0,0.0,0.0,0.0,0.0,0.0,0.0,0.0,0.0156250055879,-0.0117187537253,0.0,0.0,0.0,0.0,0.0,0.0,0.0,0.0,0.0
1583763091233928039,387,1583763091079286090,imu,-0.0176391731948,0.00311279529706,0.714383065894,0.699754839329,0.0,0.0,0.0,0.0,0.0,0.0,0.0,0.0,0.0,0.0,0.0,0.0,0.0,0.0,0.0,0.0,0.0,0.0,0.0,0.0,0.0,0.00781250279397,0.0156250055879,0.0195312574506,0.0,0.0,0.0,0.0,0.0,0.0,0.0,0.0,0.0
1583763091334582224,388,1583763091178286090,imu,-0.0175781380385,0.00329590076581,0.714388477633,0.699749314416,0.0,0.0,0.0,0.0,0.0,0.0,0.0,0.0,0.0,0.0,0.0,0.0,0.0,0.0,0.0,0.0,0.0,0.0,0.0,0.0,0.0,0.00781250279397,-0.0234375074506,0.0195312574506,0.0,0.0,0.0,0.0,0.0,0.0,0.0,0.0,0.0
1583763091434335371,389,1583763091280286090,imu,-0.0175781380385,0.00341797107831,0.714389806157,0.699747958096,0.0,0.0,0.0,0.0,0.0,0.0,0.0,0.0,0.0,0.0,0.0,0.0,0.0,0.0,0.0,0.0,0.0,0.0,0.0,0.0,0.0,0.00781250279397,0.0156250055879,-0.0273437593132,0.0,0.0,0.0,0.0,0.0,0.0,0.0,0.0,0.0
1583763091534362650,390,1583763091379286090,imu,-0.0175171028823,0.00347900646739,0.714393987051,0.699743689693,0.0,0.0,0.0,0.0,0.0,0.0,0.0,0.0,0.0,0.0,0.0,0.0,0.0,0.0,0.0,0.0,0.0,0.0,0.0,0.0,0.0,0.00781250279397,0.0156250055879,0.0195312574506,0.0,0.0,0.0,0.0,0.0,0.0,0.0,0.0,0.0
1583763091633964320,391,1583763091479286090,imu,-0.017456067726,0.00354004162364,0.714398344692,0.69973924079,0.0,0.0,0.0,0.0,0.0,0.0,0.0,0.0,0.0,0.0,0.0,0.0,0.0,0.0,0.0,0.0,0.0,0.0,0.0,0.0,0.0,0.00781250279397,-0.0234375074506,-0.0195312574506,0.0,0.0,0.0,0.0,0.0,0.0,0.0,0.0,0.0
1583763091734136382,392,1583763091579286090,imu,-0.017456067726,0.00360107677989,0.714398874993,0.699738699379,0.0,0.0,0.0,0.0,0.0,0.0,0.0,0.0,0.0,0.0,0.0,0.0,0.0,0.0,0.0,0.0,0.0,0.0,0.0,0.0,0.0,0.0,-0.0234375074506,-0.0195312574506,0.0,0.0,0.0,0.0,0.0,0.0,0.0,0.0,0.0
1583763091834109900,393,1583763091679286090,imu,-0.0173950325698,0.00366211193614,0.714403068255,0.699734418239,0.0,0.0,0.0,0.0,0.0,0.0,0.0,0.0,0.0,0.0,0.0,0.0,0.0,0.0,0.0,0.0,0.0,0.0,0.0,0.0,0.0,0.00781250279397,-0.0234375074506,0.0195312574506,0.0,0.0,0.0,0.0,0.0,0.0,0.0,0.0,0.0
1583763091934068480,394,1583763091779286090,imu,-0.0173339974135,0.00366211193614,0.714406530166,0.699730883738,0.0,0.0,0.0,0.0,0.0,0.0,0.0,0.0,0.0,0.0,0.0,0.0,0.0,0.0,0.0,0.0,0.0,0.0,0.0,0.0,0.0,0.0,0.0156250055879,-0.0195312574506,0.0,0.0,0.0,0.0,0.0,0.0,0.0,0.0,0.0
1583763092034316683,395,1583763091879286090,imu,-0.0173339974135,0.00372314709239,0.714407261589,0.699730136974,0.0,0.0,0.0,0.0,0.0,0.0,0.0,0.0,0.0,0.0,0.0,0.0,0.0,0.0,0.0,0.0,0.0,0.0,0.0,0.0,0.0,0.0,-0.0234375074506,0.0195312574506,0.0,0.0,0.0,0.0,0.0,0.0,0.0,0.0,0.0
1583763092134333209,396,1583763091979286090,imu,-0.0173339974135,0.00378418248147,0.714408178228,0.699729201107,0.0,0.0,0.0,0.0,0.0,0.0,0.0,0.0,0.0,0.0,0.0,0.0,0.0,0.0,0.0,0.0,0.0,0.0,0.0,0.0,0.0,0.0,0.0156250055879,-0.0195312574506,0.0,0.0,0.0,0.0,0.0,0.0,0.0,0.0,0.0
1583763092233969855,397,1583763092079286090,imu,-0.0173950325698,0.00390625279397,0.714406240601,0.699731179376,0.0,0.0,0.0,0.0,0.0,0.0,0.0,0.0,0.0,0.0,0.0,0.0,0.0,0.0,0.0,0.0,0.0,0.0,0.0,0.0,0.0,0.00781250279397,-0.0234375074506,0.0195312574506,0.0,0.0,0.0,0.0,0.0,0.0,0.0,0.0,0.0
1583763092334161165,398,1583763092179286090,imu,-0.0173339974135,0.00396728795022,0.714410653348,0.699726674054,0.0,0.0,0.0,0.0,0.0,0.0,0.0,0.0,0.0,0.0,0.0,0.0,0.0,0.0,0.0,0.0,0.0,0.0,0.0,0.0,0.0,0.00781250279397,-0.0234375074506,0.0117187537253,0.0,0.0,0.0,0.0,0.0,0.0,0.0,0.0,0.0
1583763092434145797,399,1583763092279286090,imu,-0.0172729622573,0.00402832310647,0.714414892505,0.699722345911,0.0,0.0,0.0,0.0,0.0,0.0,0.0,0.0,0.0,0.0,0.0,0.0,0.0,0.0,0.0,0.0,0.0,0.0,0.0,0.0,0.0,0.00781250279397,0.0156250055879,-0.0273437593132,0.0,0.0,0.0,0.0,0.0,0.0,0.0,0.0,0.0
1583763092534013642,400,1583763092379286090,imu,-0.017211927101,0.00402832310647,0.714418327736,0.69971883853,0.0,0.0,0.0,0.0,0.0,0.0,0.0,0.0,0.0,0.0,0.0,0.0,0.0,0.0,0.0,0.0,0.0,0.0,0.0,0.0,0.0,0.0,0.00781250279397,0.0117187537253,0.0,0.0,0.0,0.0,0.0,0.0,0.0,0.0,0.0
1583763092634177176,401,1583763092485571996,imu,-0.017211927101,0.00390625279397,0.714416756263,0.699720443013,0.0,0.0,0.0,0.0,0.0,0.0,0.0,0.0,0.0,0.0,0.0,0.0,0.0,0.0,0.0,0.0,0.0,0.0,0.0,0.0,0.0,0.0,-0.0312500111759,-0.0273437593132,0.0,0.0,0.0,0.0,0.0,0.0,0.0,0.0,0.0
1583763092734534974,402,1583763092585571996,imu,-0.017211927101,0.00390625279397,0.714416925994,0.699720269717,0.0,0.0,0.0,0.0,0.0,0.0,0.0,0.0,0.0,0.0,0.0,0.0,0.0,0.0,0.0,0.0,0.0,0.0,0.0,0.0,0.0,-0.00781250279397,0.0156250055879,0.0117187537253,0.0,0.0,0.0,0.0,0.0,0.0,0.0,0.0,0.0
1583763092834055728,403,1583763092684571996,imu,-0.017211927101,0.00396728795022,0.714417535914,0.699719646986,0.0,0.0,0.0,0.0,0.0,0.0,0.0,0.0,0.0,0.0,0.0,0.0,0.0,0.0,0.0,0.0,0.0,0.0,0.0,0.0,0.0,0.0,0.00781250279397,0.0117187537253,0.0,0.0,0.0,0.0,0.0,0.0,0.0,0.0,0.0
1583763092934772616,404,1583763092785571996,imu,-0.0170898567885,0.00396728795022,0.714424369726,0.699712669559,0.0,0.0,0.0,0.0,0.0,0.0,0.0,0.0,0.0,0.0,0.0,0.0,0.0,0.0,0.0,0.0,0.0,0.0,0.0,0.0,0.0,0.0,0.00781250279397,-0.0273437593132,0.0,0.0,0.0,0.0,0.0,0.0,0.0,0.0,0.0
1583763093034055528,405,1583763092885571996,imu,-0.0170288216323,0.00396728795022,0.714427934002,0.699709030325,0.0,0.0,0.0,0.0,0.0,0.0,0.0,0.0,0.0,0.0,0.0,0.0,0.0,0.0,0.0,0.0,0.0,0.0,0.0,0.0,0.0,0.0,-0.0312500111759,-0.0273437593132,0.0,0.0,0.0,0.0,0.0,0.0,0.0,0.0,0.0
1583763093134916060,406,1583763092984571996,imu,-0.0170288216323,0.00390625279397,0.714427154509,0.699709826214,0.0,0.0,0.0,0.0,0.0,0.0,0.0,0.0,0.0,0.0,0.0,0.0,0.0,0.0,0.0,0.0,0.0,0.0,0.0,0.0,0.0,0.0,0.00781250279397,0.0195312574506,0.0,0.0,0.0,0.0,0.0,0.0,0.0,0.0,0.0
1583763093234075286,407,1583763093024571996,imu,-0.0170288216323,0.00390625279397,0.714427154509,0.699709826214,0.0,0.0,0.0,0.0,0.0,0.0,0.0,0.0,0.0,0.0,0.0,0.0,0.0,0.0,0.0,0.0,0.0,0.0,0.0,0.0,0.0,0.0,0.00781250279397,-0.0195312574506,0.0,0.0,0.0,0.0,0.0,0.0,0.0,0.0,0.0
1583763093334157437,408,1583763093185571996,imu,-0.016967786476,0.00396728795022,0.714431319182,0.699705573918,0.0,0.0,0.0,0.0,0.0,0.0,0.0,0.0,0.0,0.0,0.0,0.0,0.0,0.0,0.0,0.0,0.0,0.0,0.0,0.0,0.0,0.00781250279397,-0.0312500111759,0.0195312574506,0.0,0.0,0.0,0.0,0.0,0.0,0.0,0.0,0.0
1583763093434050635,409,1583763093284571996,imu,-0.0169067494571,0.00390625279397,0.714433912707,0.699702925801,0.0,0.0,0.0,0.0,0.0,0.0,0.0,0.0,0.0,0.0,0.0,0.0,0.0,0.0,0.0,0.0,0.0,0.0,0.0,0.0,0.0,0.00781250279397,0.00781250279397,-0.0195312574506,0.0,0.0,0.0,0.0,0.0,0.0,0.0,0.0,0.0
1583763093534324763,410,1583763093385571996,imu,-0.0169067494571,0.00396728795022,0.714434692283,0.699702129812,0.0,0.0,0.0,0.0,0.0,0.0,0.0,0.0,0.0,0.0,0.0,0.0,0.0,0.0,0.0,0.0,0.0,0.0,0.0,0.0,0.0,0.00781250279397,0.00781250279397,0.0195312574506,0.0,0.0,0.0,0.0,0.0,0.0,0.0,0.0,0.0
1583763093634286956,411,1583763093485571996,imu,-0.0169067494571,0.00390625279397,0.714433912707,0.699702925801,0.0,0.0,0.0,0.0,0.0,0.0,0.0,0.0,0.0,0.0,0.0,0.0,0.0,0.0,0.0,0.0,0.0,0.0,0.0,0.0,0.0,0.0,0.00781250279397,0.0195312574506,0.0,0.0,0.0,0.0,0.0,0.0,0.0,0.0,0.0
1583763093734151311,412,1583763093485571996,imu,-0.0169067494571,0.00390625279397,0.714781069067,0.699348284694,0.0,0.0,0.0,0.0,0.0,0.0,0.0,0.0,0.0,0.0,0.0,0.0,0.0,0.0,0.0,0.0,0.0,0.0,0.0,0.0,0.0,0.0,0.00781250279397,0.0195312574506,0.0,0.0,0.0,0.0,0.0,0.0,0.0,0.0,0.0
1583763093833953149,413,1583763093685571996,imu,-0.016967786476,0.00390625279397,0.714430704241,0.6997062018,0.0,0.0,0.0,0.0,0.0,0.0,0.0,0.0,0.0,0.0,0.0,0.0,0.0,0.0,0.0,0.0,0.0,0.0,0.0,0.0,0.0,0.00781250279397,0.00781250279397,0.0117187537253,0.0,0.0,0.0,0.0,0.0,0.0,0.0,0.0,0.0
1583763093934257561,414,1583763093785571996,imu,-0.016967786476,0.00390625279397,0.714430539648,0.699706369857,0.0,0.0,0.0,0.0,0.0,0.0,0.0,0.0,0.0,0.0,0.0,0.0,0.0,0.0,0.0,0.0,0.0,0.0,0.0,0.0,0.0,0.00781250279397,0.00781250279397,0.0117187537253,0.0,0.0,0.0,0.0,0.0,0.0,0.0,0.0,0.0
1583763094034051542,415,1583763093884571996,imu,-0.016967786476,0.00390625279397,0.714430539648,0.699706369857,0.0,0.0,0.0,0.0,0.0,0.0,0.0,0.0,0.0,0.0,0.0,0.0,0.0,0.0,0.0,0.0,0.0,0.0,0.0,0.0,0.0,0.0,0.00781250279397,0.00390625139698,0.0,0.0,0.0,0.0,0.0,0.0,0.0,0.0,0.0
1583763094134177941,416,1583763093985571996,imu,-0.0169067494571,0.00384521763772,0.714433145296,0.699703709368,0.0,0.0,0.0,0.0,0.0,0.0,0.0,0.0,0.0,0.0,0.0,0.0,0.0,0.0,0.0,0.0,0.0,0.0,0.0,0.0,0.0,0.0,0.0,0.00390625139698,0.0,0.0,0.0,0.0,0.0,0.0,0.0,0.0,0.0
1583763094234197806,417,1583763094084571996,imu,-0.0168457143009,0.00378418248147,0.714435750739,0.699701049067,0.0,0.0,0.0,0.0,0.0,0.0,0.0,0.0,0.0,0.0,0.0,0.0,0.0,0.0,0.0,0.0,0.0,0.0,0.0,0.0,0.0,0.0,0.0,-0.0351562611759,0.0,0.0,0.0,0.0,0.0,0.0,0.0,0.0,0.0
1583763094334182373,418,1583763094185571996,imu,-0.0168457143009,0.00378418248147,0.714435913399,0.699700882982,0.0,0.0,0.0,0.0,0.0,0.0,0.0,0.0,0.0,0.0,0.0,0.0,0.0,0.0,0.0,0.0,0.0,0.0,0.0,0.0,0.0,-0.00781250279397,0.00781250279397,0.0117187537253,0.0,0.0,0.0,0.0,0.0,0.0,0.0,0.0,0.0
1583763094434018528,419,1583763094285571996,imu,-0.0169067494571,0.00378418248147,0.714432553954,0.699704313157,0.0,0.0,0.0,0.0,0.0,0.0,0.0,0.0,0.0,0.0,0.0,0.0,0.0,0.0,0.0,0.0,0.0,0.0,0.0,0.0,0.0,0.0,-0.0312500111759,-0.0273437593132,0.0,0.0,0.0,0.0,0.0,0.0,0.0,0.0,0.0
1583763094534869828,420,1583763094384571996,imu,-0.016967786476,0.00378418248147,0.714429017074,0.699707924467,0.0,0.0,0.0,0.0,0.0,0.0,0.0,0.0,0.0,0.0,0.0,0.0,0.0,0.0,0.0,0.0,0.0,0.0,0.0,0.0,0.0,0.0,0.00781250279397,0.0117187537253,0.0,0.0,0.0,0.0,0.0,0.0,0.0,0.0,0.0
1583763094634383253,421,1583763094485571996,imu,-0.0170288216323,0.00378418248147,0.71442563202,0.699711380722,0.0,0.0,0.0,0.0,0.0,0.0,0.0,0.0,0.0,0.0,0.0,0.0,0.0,0.0,0.0,0.0,0.0,0.0,0.0,0.0,0.0,0.0,-0.0312500111759,0.0195312574506,0.0,0.0,0.0,0.0,0.0,0.0,0.0,0.0,0.0
1583763094734974351,422,1583763094585571996,imu,-0.016967786476,0.00378418248147,0.714429017074,0.699707924467,0.0,0.0,0.0,0.0,0.0,0.0,0.0,0.0,0.0,0.0,0.0,0.0,0.0,0.0,0.0,0.0,0.0,0.0,0.0,0.0,0.0,0.0,0.00781250279397,0.0117187537253,0.0,0.0,0.0,0.0,0.0,0.0,0.0,0.0,0.0
1583763094834008508,423,1583763094684571996,imu,-0.016967786476,0.00378418248147,0.714429017074,0.699707924467,0.0,0.0,0.0,0.0,0.0,0.0,0.0,0.0,0.0,0.0,0.0,0.0,0.0,0.0,0.0,0.0,0.0,0.0,0.0,0.0,0.0,-0.00781250279397,0.0156250055879,0.0117187537253,0.0,0.0,0.0,0.0,0.0,0.0,0.0,0.0,0.0
1583763094935515738,424,1583763094785571996,imu,-0.0170288216323,0.00378418248147,0.71442563202,0.699711380722,0.0,0.0,0.0,0.0,0.0,0.0,0.0,0.0,0.0,0.0,0.0,0.0,0.0,0.0,0.0,0.0,0.0,0.0,0.0,0.0,0.0,0.0,0.00781250279397,-0.0273437593132,0.0,0.0,0.0,0.0,0.0,0.0,0.0,0.0,0.0
