%time,field.header.seq,field.header.stamp,field.header.frame_id,field.orientation.x,field.orientation.y,field.orientation.z,field.orientation.w,field.orientation_covariance0,field.orientation_covariance1,field.orientation_covariance2,field.orientation_covariance3,field.orientation_covariance4,field.orientation_covariance5,field.orientation_covariance6,field.orientation_covariance7,field.orientation_covariance8,field.angular_velocity.x,field.angular_velocity.y,field.angular_velocity.z,field.angular_velocity_covariance0,field.angular_velocity_covariance1,field.angular_velocity_covariance2,field.angular_velocity_covariance3,field.angular_velocity_covariance4,field.angular_velocity_covariance5,field.angular_velocity_covariance6,field.angular_velocity_covariance7,field.angular_velocity_covariance8,field.linear_acceleration.x,field.linear_acceleration.y,field.linear_acceleration.z,field.linear_acceleration_covariance0,field.linear_acceleration_covariance1,field.linear_acceleration_covariance2,field.linear_acceleration_covariance3,field.linear_acceleration_covariance4,field.linear_acceleration_covariance5,field.linear_acceleration_covariance6,field.linear_acceleration_covariance7,field.linear_acceleration_covariance8
1583762851049249790,1,1583762845729366024,imu,-0.0188598763198,-0.00433349935338,0.225858251075,0.974160176984,0.0,0.0,0.0,0.0,0.0,0.0,0.0,0.0,0.0,0.0,0.0,0.0,0.0,0.0,0.0,0.0,0.0,0.0,0.0,0.0,0.0,-0.00781250279397,0.0,0.00390625139698,0.0,0.0,0.0,0.0,0.0,0.0,0.0,0.0,0.0
1583762851049285565,2,1583762845828366024,imu,-0.0188598763198,-0.00427246419713,0.222834392369,0.974856314324,0.0,0.0,0.0,0.0,0.0,0.0,0.0,0.0,0.0,0.0,0.0,0.0,0.0,0.0,0.0,0.0,0.0,0.0,0.0,0.0,0.0,0.0,0.0,-0.0273437593132,0.0,0.0,0.0,0.0,0.0,0.0,0.0,0.0,0.0
1583762851049334022,3,1583762845889366024,imu,-0.0188598763198,-0.00427246419713,0.222834392369,0.974856314324,0.0,0.0,0.0,0.0,0.0,0.0,0.0,0.0,0.0,0.0,0.0,0.0,0.0,0.0,0.0,0.0,0.0,0.0,0.0,0.0,0.0,0.0,0.0,-0.0273437593132,0.0,0.0,0.0,0.0,0.0,0.0,0.0,0.0,0.0
1583762851049371715,4,1583762845989366024,imu,-0.0187988411635,-0.00427246419713,0.223531081976,0.974696801775,0.0,0.0,0.0,0.0,0.0,0.0,0.0,0.0,0.0,0.0,0.0,0.0,0.0,0.0,0.0,0.0,0.0,0.0,0.0,0.0,0.0,0.0,0.0,0.0117187537253,0.0,0.0,0.0,0.0,0.0,0.0,0.0,0.0,0.0
1583762851049405626,5,1583762846128366024,imu,-0.0188598763198,-0.00421142857522,0.219813024491,0.975542020758,0.0,0.0,0.0,0.0,0.0,0.0,0.0,0.0,0.0,0.0,0.0,0.0,0.0,0.0,0.0,0.0,0.0,0.0,0.0,0.0,0.0,0.0,0.0,-0.0195312574506,0.0,0.0,0.0,0.0,0.0,0.0,0.0,0.0,0.0
1583762851049438437,6,1583762846229366024,imu,-0.018920911476,-0.00415039341897,0.216100696833,0.97637108152,0.0,0.0,0.0,0.0,0.0,0.0,0.0,0.0,0.0,0.0,0.0,0.0,0.0,0.0,0.0,0.0,0.0,0.0,0.0,0.0,0.0,0.0,0.0,0.0195312574506,0.0,0.0,0.0,0.0,0.0,0.0,0.0,0.0,0.0
1583762851049465597,7,1583762846329366024,imu,-0.018920911476,-0.00408935826272,0.213075331229,0.977035773768,0.0,0.0,0.0,0.0,0.0,0.0,0.0,0.0,0.0,0.0,0.0,0.0,0.0,0.0,0.0,0.0,0.0,0.0,0.0,0.0,0.0,0.0,0.0,0.0117187537253,0.0,0.0,0.0,0.0,0.0,0.0,0.0,0.0,0.0
1583762851049516422,8,1583762846389366024,imu,-0.018920911476,-0.00408935826272,0.213075331229,0.977035773768,0.0,0.0,0.0,0.0,0.0,0.0,0.0,0.0,0.0,0.0,0.0,0.0,0.0,0.0,0.0,0.0,0.0,0.0,0.0,0.0,0.0,0.0,0.0,0.0117187537253,0.0,0.0,0.0,0.0,0.0,0.0,0.0,0.0,0.0
1583762851049543546,9,1583762846533629114,imu,-0.018920911476,-0.00408935826272,0.213102100241,0.977029935505,0.0,0.0,0.0,0.0,0.0,0.0,0.0,0.0,0.0,0.0,0.0,0.0,0.0,0.0,0.0,0.0,0.0,0.0,0.0,0.0,0.0,0.0351562611759,0.0,0.00390625139698,0.0,0.0,0.0,0.0,0.0,0.0,0.0,0.0,0.0
1583762851049584302,10,1583762846632629114,imu,-0.0188598763198,-0.00408935826272,0.21376073522,0.976886046619,0.0,0.0,0.0,0.0,0.0,0.0,0.0,0.0,0.0,0.0,0.0,0.0,0.0,0.0,0.0,0.0,0.0,0.0,0.0,0.0,0.0,0.0273437593132,0.0,0.00390625139698,0.0,0.0,0.0,0.0,0.0,0.0,0.0,0.0,0.0
1583762851049627425,11,1583762846733629114,imu,-0.0188598763198,-0.00408935826272,0.213805589292,0.976876230639,0.0,0.0,0.0,0.0,0.0,0.0,0.0,0.0,0.0,0.0,0.0,0.0,0.0,0.0,0.0,0.0,0.0,0.0,0.0,0.0,0.0,-0.0156250055879,0.0,0.00390625139698,0.0,0.0,0.0,0.0,0.0,0.0,0.0,0.0,0.0
1583762851049928363,12,1583762846833629114,imu,-0.0188598763198,-0.00415039341897,0.21680332205,0.97621530389,0.0,0.0,0.0,0.0,0.0,0.0,0.0,0.0,0.0,0.0,0.0,0.0,0.0,0.0,0.0,0.0,0.0,0.0,0.0,0.0,0.0,-0.00781250279397,-0.0390625149012,0.00390625139698,0.0,0.0,0.0,0.0,0.0,0.0,0.0,0.0,0.0
1583762851050055065,13,1583762846933629114,imu,-0.0188598763198,-0.00421142857522,0.221081727093,0.9752552845,0.0,0.0,0.0,0.0,0.0,0.0,0.0,0.0,0.0,0.0,0.0,0.0,0.0,0.0,0.0,0.0,0.0,0.0,0.0,0.0,0.0,-0.0468750149012,0.191406324506,0.00390625139698,0.0,0.0,0.0,0.0,0.0,0.0,0.0,0.0,0.0
1583762851050272532,14,1583762847032629114,imu,-0.0187378060073,-0.00415039341897,0.220139874198,0.975468316138,0.0,0.0,0.0,0.0,0.0,0.0,0.0,0.0,0.0,0.0,0.0,0.0,0.0,0.0,0.0,0.0,0.0,0.0,0.0,0.0,0.0,-0.0546875186265,0.0156250055879,-0.00390625139698,0.0,0.0,0.0,0.0,0.0,0.0,0.0,0.0,0.0
1583762851050699297,15,1583762847132629114,imu,-0.0183715950698,-0.00421142857522,0.229051845555,0.973414224289,0.0,0.0,0.0,0.0,0.0,0.0,0.0,0.0,0.0,0.0,0.0,0.0,0.0,0.0,0.0,0.0,0.0,0.0,0.0,0.0,0.0,0.0195312574506,0.128906294703,-0.00390625139698,0.0,0.0,0.0,0.0,0.0,0.0,0.0,0.0,0.0
1583762851050849968,16,1583762847233629114,imu,-0.0178222786635,-0.00433349935338,0.244268902704,0.969707534864,0.0,0.0,0.0,0.0,0.0,0.0,0.0,0.0,0.0,0.0,0.0,0.0,0.0,0.0,0.0,0.0,0.0,0.0,0.0,0.0,0.0,0.0195312574506,0.0585937723517,-0.00390625139698,0.0,0.0,0.0,0.0,0.0,0.0,0.0,0.0,0.0
1583762851050981728,17,1583762847293629114,imu,-0.0172729622573,-0.00427246419713,0.250646304742,0.968078731261,0.0,0.0,0.0,0.0,0.0,0.0,0.0,0.0,0.0,0.0,0.0,0.0,0.0,0.0,0.0,0.0,0.0,0.0,0.0,0.0,0.0,0.0195312574506,0.0585937723517,-0.00390625139698,0.0,0.0,0.0,0.0,0.0,0.0,0.0,0.0,0.0
1583762851050990039,18,1583762847393629114,imu,-0.0167236439884,-0.00439453450963,0.272069699359,0.962277547639,0.0,0.0,0.0,0.0,0.0,0.0,0.0,0.0,0.0,0.0,0.0,0.0,0.0,0.0,0.0,0.0,0.0,0.0,0.0,0.0,0.0,0.0117187537253,-0.0273437593132,0.00390625139698,0.0,0.0,0.0,0.0,0.0,0.0,0.0,0.0,0.0
1583762851051273628,19,1583762847533629114,imu,-0.0161743275821,-0.00427246419713,0.278790813759,0.960351853314,0.0,0.0,0.0,0.0,0.0,0.0,0.0,0.0,0.0,0.0,0.0,0.0,0.0,0.0,0.0,0.0,0.0,0.0,0.0,0.0,0.0,0.0117187537253,-0.00390625139698,0.0468750149012,0.0,0.0,0.0,0.0,0.0,0.0,0.0,0.0,0.0
1583762851051481617,20,1583762847592629114,imu,-0.0155639760196,-0.00451660482213,0.312113018639,0.950044979775,0.0,0.0,0.0,0.0,0.0,0.0,0.0,0.0,0.0,0.0,0.0,0.0,0.0,0.0,0.0,0.0,0.0,0.0,0.0,0.0,0.0,0.0117187537253,-0.00390625139698,0.0468750149012,0.0,0.0,0.0,0.0,0.0,0.0,0.0,0.0,0.0
1583762851051885014,21,1583762847733629114,imu,-0.0151367299259,-0.00476074544713,0.343004493408,0.939333762569,0.0,0.0,0.0,0.0,0.0,0.0,0.0,0.0,0.0,0.0,0.0,0.0,0.0,0.0,0.0,0.0,0.0,0.0,0.0,0.0,0.0,-0.101562537253,0.0195312574506,-0.0117187537253,0.0,0.0,0.0,0.0,0.0,0.0,0.0,0.0,0.0
1583762851052094158,22,1583762847792629114,imu,-0.0147094829008,-0.00463867513463,0.356629465742,0.934245912041,0.0,0.0,0.0,0.0,0.0,0.0,0.0,0.0,0.0,0.0,0.0,0.0,0.0,0.0,0.0,0.0,0.0,0.0,0.0,0.0,0.0,-0.101562537253,0.0195312574506,-0.0117187537253,0.0,0.0,0.0,0.0,0.0,0.0,0.0,0.0,0.0
1583762851052298068,23,1583762847892629114,imu,-0.0146484477445,-0.00476074544713,0.372689300764,0.927956187056,0.0,0.0,0.0,0.0,0.0,0.0,0.0,0.0,0.0,0.0,0.0,0.0,0.0,0.0,0.0,0.0,0.0,0.0,0.0,0.0,0.0,-0.0156250055879,0.0585937723517,0.117187544703,0.0,0.0,0.0,0.0,0.0,0.0,0.0,0.0,0.0
1583762851052543644,24,1583762847993629114,imu,-0.0145874125883,-0.00506592169404,0.391782685117,0.920057784948,0.0,0.0,0.0,0.0,0.0,0.0,0.0,0.0,0.0,0.0,0.0,0.0,0.0,0.0,0.0,0.0,0.0,0.0,0.0,0.0,0.0,0.0976562872529,-0.0507812686265,-0.0507812686265,0.0,0.0,0.0,0.0,0.0,0.0,0.0,0.0,0.0
1583762851052734445,25,1583762848132629114,imu,-0.0151977650821,-0.00488281622529,0.364730915876,0.931112967907,0.0,0.0,0.0,0.0,0.0,0.0,0.0,0.0,0.0,0.0,0.0,0.0,0.0,0.0,0.0,0.0,0.0,0.0,0.0,0.0,0.0,0.0507812686265,-0.140625044703,-0.0351562611759,0.0,0.0,0.0,0.0,0.0,0.0,0.0,0.0,0.0
1583762851052900529,26,1583762848194629114,imu,-0.0155029408634,-0.00469971029088,0.353336742748,0.935496203212,0.0,0.0,0.0,0.0,0.0,0.0,0.0,0.0,0.0,0.0,0.0,0.0,0.0,0.0,0.0,0.0,0.0,0.0,0.0,0.0,0.0,0.0507812686265,-0.140625044703,-0.0351562611759,0.0,0.0,0.0,0.0,0.0,0.0,0.0,0.0,0.0
1583762851055805187,27,1583762848293629114,imu,-0.0161132924259,-0.00439453450963,0.328741207253,0.944420043547,0.0,0.0,0.0,0.0,0.0,0.0,0.0,0.0,0.0,0.0,0.0,0.0,0.0,0.0,0.0,0.0,0.0,0.0,0.0,0.0,0.0,-0.0625000223517,-0.0859375298023,0.00390625139698,0.0,0.0,0.0,0.0,0.0,0.0,0.0,0.0,0.0
1583762851055829066,28,1583762848392629114,imu,-0.0168457143009,-0.00421142857522,0.310081498605,0.950709979028,0.0,0.0,0.0,0.0,0.0,0.0,0.0,0.0,0.0,0.0,0.0,0.0,0.0,0.0,0.0,0.0,0.0,0.0,0.0,0.0,0.0,-0.0546875186265,-0.0625000223517,0.00390625139698,0.0,0.0,0.0,0.0,0.0,0.0,0.0,0.0,0.0
1583762851055845255,29,1583762848493629114,imu,-0.0175171028823,-0.00390625279397,0.283602068515,0.958942055983,0.0,0.0,0.0,0.0,0.0,0.0,0.0,0.0,0.0,0.0,0.0,0.0,0.0,0.0,0.0,0.0,0.0,0.0,0.0,0.0,0.0,0.0273437593132,0.00781250279397,0.0117187537253,0.0,0.0,0.0,0.0,0.0,0.0,0.0,0.0,0.0
1583762851055876079,30,1583762848634629114,imu,-0.017700208351,-0.00445556966588,0.311230497958,0.950334455411,0.0,0.0,0.0,0.0,0.0,0.0,0.0,0.0,0.0,0.0,0.0,0.0,0.0,0.0,0.0,0.0,0.0,0.0,0.0,0.0,0.0,-0.0546875186265,-0.0234375074506,-0.0351562611759,0.0,0.0,0.0,0.0,0.0,0.0,0.0,0.0,0.0
1583762851055889705,31,1583762848693629114,imu,-0.0185547005385,-0.00433349935338,0.289814102018,0.957082956839,0.0,0.0,0.0,0.0,0.0,0.0,0.0,0.0,0.0,0.0,0.0,0.0,0.0,0.0,0.0,0.0,0.0,0.0,0.0,0.0,0.0,-0.0546875186265,-0.0234375074506,-0.0351562611759,0.0,0.0,0.0,0.0,0.0,0.0,0.0,0.0,0.0
1583762851055914793,32,1583762848793629114,imu,-0.018920911476,-0.00439453450963,0.289165698225,0.957279060133,0.0,0.0,0.0,0.0,0.0,0.0,0.0,0.0,0.0,0.0,0.0,0.0,0.0,0.0,0.0,0.0,0.0,0.0,0.0,0.0,0.0,-0.0546875186265,-0.00781250279397,0.0351562611759,0.0,0.0,0.0,0.0,0.0,0.0,0.0,0.0,0.0
1583762851055944683,33,1583762848892629114,imu,-0.0194702278823,-0.00451660482213,0.28579411913,0.958291042153,0.0,0.0,0.0,0.0,0.0,0.0,0.0,0.0,0.0,0.0,0.0,0.0,0.0,0.0,0.0,0.0,0.0,0.0,0.0,0.0,0.0,-0.0156250055879,-0.0351562611759,0.0625000223517,0.0,0.0,0.0,0.0,0.0,0.0,0.0,0.0,0.0
1583762851055976961,34,1583762849039294006,imu,-0.0198974758387,-0.00469971029088,0.288200302397,0.95757014662,0.0,0.0,0.0,0.0,0.0,0.0,0.0,0.0,0.0,0.0,0.0,0.0,0.0,0.0,0.0,0.0,0.0,0.0,0.0,0.0,0.0,0.0117187537253,0.00781250279397,0.0273437593132,0.0,0.0,0.0,0.0,0.0,0.0,0.0,0.0,0.0
1583762851055995108,35,1583762849099294006,imu,-0.0205688625574,-0.00482178060338,0.281120092938,0.959672596955,0.0,0.0,0.0,0.0,0.0,0.0,0.0,0.0,0.0,0.0,0.0,0.0,0.0,0.0,0.0,0.0,0.0,0.0,0.0,0.0,0.0,0.0117187537253,0.00781250279397,0.0273437593132,0.0,0.0,0.0,0.0,0.0,0.0,0.0,0.0,0.0
1583762851056022376,36,1583762849239294006,imu,-0.0211181789637,-0.00488281622529,0.279189153413,0.960236125448,0.0,0.0,0.0,0.0,0.0,0.0,0.0,0.0,0.0,0.0,0.0,0.0,0.0,0.0,0.0,0.0,0.0,0.0,0.0,0.0,0.0,0.0117187537253,-0.0117187537253,-0.0429687649012,0.0,0.0,0.0,0.0,0.0,0.0,0.0,0.0,0.0
1583762851056056910,37,1583762849338294006,imu,-0.0216064602137,-0.00524902716279,0.287890152141,0.957663437905,0.0,0.0,0.0,0.0,0.0,0.0,0.0,0.0,0.0,0.0,0.0,0.0,0.0,0.0,0.0,0.0,0.0,0.0,0.0,0.0,0.0,0.0429687649012,-0.0507812686265,-0.0351562611759,0.0,0.0,0.0,0.0,0.0,0.0,0.0,0.0,0.0
1583762851056068421,38,1583762849399294006,imu,-0.0223999191076,-0.00476074544713,0.257727908087,0.966217535234,0.0,0.0,0.0,0.0,0.0,0.0,0.0,0.0,0.0,0.0,0.0,0.0,0.0,0.0,0.0,0.0,0.0,0.0,0.0,0.0,0.0,0.0429687649012,-0.0507812686265,-0.0351562611759,0.0,0.0,0.0,0.0,0.0,0.0,0.0,0.0,0.0
1583762851056086032,39,1583762849499294006,imu,-0.0225219894201,-0.00494385138154,0.261282363603,0.965262413269,0.0,0.0,0.0,0.0,0.0,0.0,0.0,0.0,0.0,0.0,0.0,0.0,0.0,0.0,0.0,0.0,0.0,0.0,0.0,0.0,0.0,-0.0625000223517,0.0468750149012,-0.125000044703,0.0,0.0,0.0,0.0,0.0,0.0,0.0,0.0,0.0
1583762851056568218,40,1583762849598294006,imu,-0.0231323409826,-0.00439453450963,0.236086137208,0.971732131721,0.0,0.0,0.0,0.0,0.0,0.0,0.0,0.0,0.0,0.0,0.0,0.0,0.0,0.0,0.0,0.0,0.0,0.0,0.0,0.0,0.0,0.0195312574506,-0.0820312798023,-0.0273437593132,0.0,0.0,0.0,0.0,0.0,0.0,0.0,0.0,0.0
1583762851056641815,41,1583762849699294006,imu,-0.0236816573888,-0.00384521763772,0.210233827677,0.97765113292,0.0,0.0,0.0,0.0,0.0,0.0,0.0,0.0,0.0,0.0,0.0,0.0,0.0,0.0,0.0,0.0,0.0,0.0,0.0,0.0,0.0,-0.0390625149012,0.117187544703,0.0507812686265,0.0,0.0,0.0,0.0,0.0,0.0,0.0,0.0,0.0
1583762851056723044,42,1583762849798294006,imu,-0.0242920089513,-0.00378418248147,0.202903947694,0.979198645838,0.0,0.0,0.0,0.0,0.0,0.0,0.0,0.0,0.0,0.0,0.0,0.0,0.0,0.0,0.0,0.0,0.0,0.0,0.0,0.0,0.0,-0.0703125223517,0.0859375298023,0.0117187537253,0.0,0.0,0.0,0.0,0.0,0.0,0.0,0.0,0.0
1583762851057360278,43,1583762849898294006,imu,-0.0246582198888,-0.00384521763772,0.206641613933,0.978416702326,0.0,0.0,0.0,0.0,0.0,0.0,0.0,0.0,0.0,0.0,0.0,0.0,0.0,0.0,0.0,0.0,0.0,0.0,0.0,0.0,0.0,-0.0312500111759,0.0117187537253,0.0507812686265,0.0,0.0,0.0,0.0,0.0,0.0,0.0,0.0,0.0
1583762851063478548,44,1583762849999294006,imu,-0.0250854678452,-0.00360107677989,0.194670413198,0.980868712023,0.0,0.0,0.0,0.0,0.0,0.0,0.0,0.0,0.0,0.0,0.0,0.0,0.0,0.0,0.0,0.0,0.0,0.0,0.0,0.0,0.0,0.113281287253,-0.0585937723517,0.0351562611759,0.0,0.0,0.0,0.0,0.0,0.0,0.0,0.0,0.0
1583762851063511296,45,1583762850099294006,imu,-0.0253906436265,-0.00347900646739,0.190494030463,0.981688353989,0.0,0.0,0.0,0.0,0.0,0.0,0.0,0.0,0.0,0.0,0.0,0.0,0.0,0.0,0.0,0.0,0.0,0.0,0.0,0.0,0.0,0.00781250279397,-0.0117187537253,-0.0117187537253,0.0,0.0,0.0,0.0,0.0,0.0,0.0,0.0,0.0
1583762851063519933,46,1583762850198294006,imu,-0.0253906436265,-0.00390625279397,0.206841126258,0.978374544072,0.0,0.0,0.0,0.0,0.0,0.0,0.0,0.0,0.0,0.0,0.0,0.0,0.0,0.0,0.0,0.0,0.0,0.0,0.0,0.0,0.0,0.0351562611759,0.0273437593132,0.0859375298023,0.0,0.0,0.0,0.0,0.0,0.0,0.0,0.0,0.0
1583762851063528421,47,1583762850299294006,imu,-0.0253296084702,-0.00396728795022,0.208604059661,0.978000177041,0.0,0.0,0.0,0.0,0.0,0.0,0.0,0.0,0.0,0.0,0.0,0.0,0.0,0.0,0.0,0.0,0.0,0.0,0.0,0.0,0.0,0.0664062723517,0.0273437593132,0.0625000223517,0.0,0.0,0.0,0.0,0.0,0.0,0.0,0.0,0.0
1583762851063578905,48,1583762850399294006,imu,-0.0251465030015,-0.00427246419713,0.224253502916,0.974530844268,0.0,0.0,0.0,0.0,0.0,0.0,0.0,0.0,0.0,0.0,0.0,0.0,0.0,0.0,0.0,0.0,0.0,0.0,0.0,0.0,0.0,-0.0234375074506,-0.0195312574506,0.0859375298023,0.0,0.0,0.0,0.0,0.0,0.0,0.0,0.0,0.0
1583762851063667248,49,1583762850498294006,imu,-0.0249023623765,-0.00451660482213,0.240534497574,0.970640590268,0.0,0.0,0.0,0.0,0.0,0.0,0.0,0.0,0.0,0.0,0.0,0.0,0.0,0.0,0.0,0.0,0.0,0.0,0.0,0.0,0.0,-0.00390625139698,0.0195312574506,-0.00390625139698,0.0,0.0,0.0,0.0,0.0,0.0,0.0,0.0,0.0
1583762851063688979,50,1583762850598294006,imu,-0.0244751144201,-0.00482178060338,0.255994346839,0.966678278636,0.0,0.0,0.0,0.0,0.0,0.0,0.0,0.0,0.0,0.0,0.0,0.0,0.0,0.0,0.0,0.0,0.0,0.0,0.0,0.0,0.0,-0.117187544703,0.0468750149012,-0.0507812686265,0.0,0.0,0.0,0.0,0.0,0.0,0.0,0.0,0.0
1583762851063768327,51,1583762850698294006,imu,-0.0243530441076,-0.00488281622529,0.264858275757,0.964287350204,0.0,0.0,0.0,0.0,0.0,0.0,0.0,0.0,0.0,0.0,0.0,0.0,0.0,0.0,0.0,0.0,0.0,0.0,0.0,0.0,0.0,0.0429687649012,0.0117187537253,-0.0429687649012,0.0,0.0,0.0,0.0,0.0,0.0,0.0,0.0,0.0
1583762851063827608,52,1583762850798294006,imu,-0.0242920089513,-0.00524902716279,0.280296266391,0.95991353936,0.0,0.0,0.0,0.0,0.0,0.0,0.0,0.0,0.0,0.0,0.0,0.0,0.0,0.0,0.0,0.0,0.0,0.0,0.0,0.0,0.0,-0.0781250298023,0.0468750149012,-0.0585937723517,0.0,0.0,0.0,0.0,0.0,0.0,0.0,0.0,0.0
1583762851076225844,53,1583762850899294006,imu,-0.0238037277013,-0.00549316778779,0.298034327036,0.95455515289,0.0,0.0,0.0,0.0,0.0,0.0,0.0,0.0,0.0,0.0,0.0,0.0,0.0,0.0,0.0,0.0,0.0,0.0,0.0,0.0,0.0,0.00390625139698,0.0468750149012,0.0781250298023,0.0,0.0,0.0,0.0,0.0,0.0,0.0,0.0,0.0
1583762851176117919,54,1583762850998294006,imu,-0.0238647628576,-0.00573730887845,0.304351860316,0.952559680609,0.0,0.0,0.0,0.0,0.0,0.0,0.0,0.0,0.0,0.0,0.0,0.0,0.0,0.0,0.0,0.0,0.0,0.0,0.0,0.0,0.0,-0.0703125223517,0.0312500111759,-0.105468787253,0.0,0.0,0.0,0.0,0.0,0.0,0.0,0.0,0.0
1583762851276449643,55,1583762851098294006,imu,-0.0236816573888,-0.0059204143472,0.317125977524,0.948383421607,0.0,0.0,0.0,0.0,0.0,0.0,0.0,0.0,0.0,0.0,0.0,0.0,0.0,0.0,0.0,0.0,0.0,0.0,0.0,0.0,0.0,0.00390625139698,0.0781250298023,0.0117187537253,0.0,0.0,0.0,0.0,0.0,0.0,0.0,0.0,0.0
1583762851376081985,56,1583762851199294006,imu,-0.0236206222326,-0.0059204143472,0.320107967921,0.947381068459,0.0,0.0,0.0,0.0,0.0,0.0,0.0,0.0,0.0,0.0,0.0,0.0,0.0,0.0,0.0,0.0,0.0,0.0,0.0,0.0,0.0,0.0117187537253,-0.0429687649012,0.0664062723517,0.0,0.0,0.0,0.0,0.0,0.0,0.0,0.0,0.0
1583762851476565794,57,1583762851298294006,imu,-0.0236816573888,-0.00585937919095,0.319434945007,0.947608208021,0.0,0.0,0.0,0.0,0.0,0.0,0.0,0.0,0.0,0.0,0.0,0.0,0.0,0.0,0.0,0.0,0.0,0.0,0.0,0.0,0.0,0.00390625139698,0.101562537253,-0.0195312574506,0.0,0.0,0.0,0.0,0.0,0.0,0.0,0.0,0.0
1583762851576549273,58,1583762851398294006,imu,-0.0234985519201,-0.0060424846597,0.329026901454,0.944320548394,0.0,0.0,0.0,0.0,0.0,0.0,0.0,0.0,0.0,0.0,0.0,0.0,0.0,0.0,0.0,0.0,0.0,0.0,0.0,0.0,0.0,0.0429687649012,0.101562537253,0.0859375298023,0.0,0.0,0.0,0.0,0.0,0.0,0.0,0.0,0.0
1583762851676295811,59,1583762851498294006,imu,-0.0234375167638,-0.00610351981595,0.334030409607,0.942562297919,0.0,0.0,0.0,0.0,0.0,0.0,0.0,0.0,0.0,0.0,0.0,0.0,0.0,0.0,0.0,0.0,0.0,0.0,0.0,0.0,0.0,-0.00390625139698,0.00781250279397,-0.0351562611759,0.0,0.0,0.0,0.0,0.0,0.0,0.0,0.0,0.0
1583762851776517406,60,1583762851605005067,imu,-0.0235595870763,-0.0057983440347,0.325820135732,0.945431773927,0.0,0.0,0.0,0.0,0.0,0.0,0.0,0.0,0.0,0.0,0.0,0.0,0.0,0.0,0.0,0.0,0.0,0.0,0.0,0.0,0.0,0.0195312574506,0.0,0.00390625139698,0.0,0.0,0.0,0.0,0.0,0.0,0.0,0.0,0.0
1583762851876417307,61,1583762851705005067,imu,-0.0233764816076,-0.0057983440347,0.32957425278,0.944129658418,0.0,0.0,0.0,0.0,0.0,0.0,0.0,0.0,0.0,0.0,0.0,0.0,0.0,0.0,0.0,0.0,0.0,0.0,0.0,0.0,0.0,-0.0546875186265,0.00781250279397,-0.0429687649012,0.0,0.0,0.0,0.0,0.0,0.0,0.0,0.0,0.0
1583762851976617017,62,1583762851805005067,imu,-0.0233764816076,-0.0057983440347,0.331857586793,0.943329498154,0.0,0.0,0.0,0.0,0.0,0.0,0.0,0.0,0.0,0.0,0.0,0.0,0.0,0.0,0.0,0.0,0.0,0.0,0.0,0.0,0.0,0.0585937723517,0.0859375298023,0.0351562611759,0.0,0.0,0.0,0.0,0.0,0.0,0.0,0.0,0.0
1583762852076323322,63,1583762851904005067,imu,-0.0232544112951,-0.00585937919095,0.335581349188,0.942011230335,0.0,0.0,0.0,0.0,0.0,0.0,0.0,0.0,0.0,0.0,0.0,0.0,0.0,0.0,0.0,0.0,0.0,0.0,0.0,0.0,0.0,0.0585937723517,-0.0820312798023,-0.0507812686265,0.0,0.0,0.0,0.0,0.0,0.0,0.0,0.0,0.0
1583762852176175574,64,1583762852005005067,imu,-0.0230102706701,-0.0060424846597,0.345005840631,0.938600537998,0.0,0.0,0.0,0.0,0.0,0.0,0.0,0.0,0.0,0.0,0.0,0.0,0.0,0.0,0.0,0.0,0.0,0.0,0.0,0.0,0.0,-0.0625000223517,0.0390625149012,0.0273437593132,0.0,0.0,0.0,0.0,0.0,0.0,0.0,0.0,0.0
1583762852276635321,65,1583762852105005067,imu,-0.0228882003576,-0.00573730887845,0.337103488681,0.941467597912,0.0,0.0,0.0,0.0,0.0,0.0,0.0,0.0,0.0,0.0,0.0,0.0,0.0,0.0,0.0,0.0,0.0,0.0,0.0,0.0,0.0,-0.0468750149012,0.0390625149012,-0.121093794703,0.0,0.0,0.0,0.0,0.0,0.0,0.0,0.0,0.0
1583762852376514492,66,1583762852204005067,imu,-0.0229492355138,-0.00573730887845,0.336191543226,0.941793632524,0.0,0.0,0.0,0.0,0.0,0.0,0.0,0.0,0.0,0.0,0.0,0.0,0.0,0.0,0.0,0.0,0.0,0.0,0.0,0.0,0.0,-0.00390625139698,0.0390625149012,0.132812544703,0.0,0.0,0.0,0.0,0.0,0.0,0.0,0.0,0.0
1583762852476549137,67,1583762852305005067,imu,-0.0230102706701,-0.0055542034097,0.325834987795,0.945426655393,0.0,0.0,0.0,0.0,0.0,0.0,0.0,0.0,0.0,0.0,0.0,0.0,0.0,0.0,0.0,0.0,0.0,0.0,0.0,0.0,0.0,-0.00390625139698,-0.0273437593132,-0.0273437593132,0.0,0.0,0.0,0.0,0.0,0.0,0.0,0.0,0.0
1583762852576542223,68,1583762852405005067,imu,-0.0230713058263,-0.00561523856595,0.329277194873,0.944233302175,0.0,0.0,0.0,0.0,0.0,0.0,0.0,0.0,0.0,0.0,0.0,0.0,0.0,0.0,0.0,0.0,0.0,0.0,0.0,0.0,0.0,-0.00390625139698,-0.0273437593132,0.0351562611759,0.0,0.0,0.0,0.0,0.0,0.0,0.0,0.0,0.0
1583762852676419072,69,1583762852504005067,imu,-0.0231933761388,-0.00500488653779,0.307503901035,0.951546820103,0.0,0.0,0.0,0.0,0.0,0.0,0.0,0.0,0.0,0.0,0.0,0.0,0.0,0.0,0.0,0.0,0.0,0.0,0.0,0.0,0.0,-0.0117187537253,0.0156250055879,-0.0195312574506,0.0,0.0,0.0,0.0,0.0,0.0,0.0,0.0,0.0
1583762852776445904,70,1583762852605005067,imu,-0.0229492355138,-0.00506592169404,0.310579627344,0.950547366036,0.0,0.0,0.0,0.0,0.0,0.0,0.0,0.0,0.0,0.0,0.0,0.0,0.0,0.0,0.0,0.0,0.0,0.0,0.0,0.0,0.0,-0.0156250055879,-0.144531294703,-0.0976562872529,0.0,0.0,0.0,0.0,0.0,0.0,0.0,0.0,0.0
1583762852876461483,71,1583762852705005067,imu,-0.0225830245763,-0.00476074544713,0.310827229797,0.950466429295,0.0,0.0,0.0,0.0,0.0,0.0,0.0,0.0,0.0,0.0,0.0,0.0,0.0,0.0,0.0,0.0,0.0,0.0,0.0,0.0,0.0,0.0585937723517,-0.0273437593132,0.0429687649012,0.0,0.0,0.0,0.0,0.0,0.0,0.0,0.0,0.0
1583762852976071844,72,1583762852804005067,imu,-0.0223999191076,-0.00457763997838,0.308735062212,0.951148075413,0.0,0.0,0.0,0.0,0.0,0.0,0.0,0.0,0.0,0.0,0.0,0.0,0.0,0.0,0.0,0.0,0.0,0.0,0.0,0.0,0.0,-0.0859375298023,0.0,0.0429687649012,0.0,0.0,0.0,0.0,0.0,0.0,0.0,0.0,0.0
1583762853076363084,73,1583762852905005067,imu,-0.0223999191076,-0.00439453450963,0.30388237557,0.952709557954,0.0,0.0,0.0,0.0,0.0,0.0,0.0,0.0,0.0,0.0,0.0,0.0,0.0,0.0,0.0,0.0,0.0,0.0,0.0,0.0,0.0,0.0273437593132,-0.00781250279397,0.0273437593132,0.0,0.0,0.0,0.0,0.0,0.0,0.0,0.0,0.0
1583762853176106618,74,1583762853005005067,imu,-0.0222778487951,-0.00408935826272,0.286835026834,0.957979993205,0.0,0.0,0.0,0.0,0.0,0.0,0.0,0.0,0.0,0.0,0.0,0.0,0.0,0.0,0.0,0.0,0.0,0.0,0.0,0.0,0.0,-0.00781250279397,-0.00781250279397,0.0195312574506,0.0,0.0,0.0,0.0,0.0,0.0,0.0,0.0,0.0
1583762853276360399,75,1583762853104005067,imu,-0.0225830245763,-0.00378418248147,0.25779497896,0.966199642322,0.0,0.0,0.0,0.0,0.0,0.0,0.0,0.0,0.0,0.0,0.0,0.0,0.0,0.0,0.0,0.0,0.0,0.0,0.0,0.0,0.0,-0.0546875186265,-0.214843824506,-0.0273437593132,0.0,0.0,0.0,0.0,0.0,0.0,0.0,0.0,0.0
1583762853376241543,76,1583762853204005067,imu,-0.0232544112951,-0.00347900646739,0.233928254249,0.972253861841,0.0,0.0,0.0,0.0,0.0,0.0,0.0,0.0,0.0,0.0,0.0,0.0,0.0,0.0,0.0,0.0,0.0,0.0,0.0,0.0,0.0,0.105468787253,-0.371093869209,0.0507812686265,0.0,0.0,0.0,0.0,0.0,0.0,0.0,0.0,0.0
1583762853476410631,77,1583762853304005067,imu,-0.0241089034826,-0.00299072475173,0.200948875067,0.979601730097,0.0,0.0,0.0,0.0,0.0,0.0,0.0,0.0,0.0,0.0,0.0,0.0,0.0,0.0,0.0,0.0,0.0,0.0,0.0,0.0,0.0,-0.117187544703,-0.164062559605,-0.0351562611759,0.0,0.0,0.0,0.0,0.0,0.0,0.0,0.0,0.0
1583762853576742893,78,1583762853404005067,imu,-0.0248413272202,-0.00280761928298,0.172839786854,0.984949952069,0.0,0.0,0.0,0.0,0.0,0.0,0.0,0.0,0.0,0.0,0.0,0.0,0.0,0.0,0.0,0.0,0.0,0.0,0.0,0.0,0.0,0.0898437798023,-0.0312500111759,0.0429687649012,0.0,0.0,0.0,0.0,0.0,0.0,0.0,0.0,0.0
1583762853676471353,79,1583762853504005067,imu,-0.0256958194077,-0.0025024432689,0.14232980392,0.98981929003,0.0,0.0,0.0,0.0,0.0,0.0,0.0,0.0,0.0,0.0,0.0,0.0,0.0,0.0,0.0,0.0,0.0,0.0,0.0,0.0,0.0,0.0507812686265,-0.0859375298023,-0.0351562611759,0.0,0.0,0.0,0.0,0.0,0.0,0.0,0.0,0.0
1583762853778789288,80,1583762853604005067,imu,-0.0264282412827,-0.00256347842515,0.134309439303,0.990939440387,0.0,0.0,0.0,0.0,0.0,0.0,0.0,0.0,0.0,0.0,0.0,0.0,0.0,0.0,0.0,0.0,0.0,0.0,0.0,0.0,0.0,-0.0234375074506,0.0156250055879,0.0507812686265,0.0,0.0,0.0,0.0,0.0,0.0,0.0,0.0,0.0
1583762853876666875,81,1583762853704005067,imu,-0.027221698314,-0.00268554873765,0.126235450809,0.992000307943,0.0,0.0,0.0,0.0,0.0,0.0,0.0,0.0,0.0,0.0,0.0,0.0,0.0,0.0,0.0,0.0,0.0,0.0,0.0,0.0,0.0,0.0156250055879,0.0664062723517,0.0117187537253,0.0,0.0,0.0,0.0,0.0,0.0,0.0,0.0,0.0
1583762853976365189,82,1583762853805005067,imu,-0.0277099814266,-0.0027465838939,0.121130094412,0.992636640583,0.0,0.0,0.0,0.0,0.0,0.0,0.0,0.0,0.0,0.0,0.0,0.0,0.0,0.0,0.0,0.0,0.0,0.0,0.0,0.0,0.0,0.0156250055879,0.238281339407,0.0117187537253,0.0,0.0,0.0,0.0,0.0,0.0,0.0,0.0,0.0
1583762854076271752,83,1583762853904005067,imu,-0.0277710165828,-0.00286865443923,0.125742842268,0.992062869791,0.0,0.0,0.0,0.0,0.0,0.0,0.0,0.0,0.0,0.0,0.0,0.0,0.0,0.0,0.0,0.0,0.0,0.0,0.0,0.0,0.0,-0.117187544703,0.304687619209,0.0117187537253,0.0,0.0,0.0,0.0,0.0,0.0,0.0,0.0,0.0
1583762854177136992,84,1583762854003005067,imu,-0.0275879111141,-0.00280761928298,0.125191962909,0.99213253773,0.0,0.0,0.0,0.0,0.0,0.0,0.0,0.0,0.0,0.0,0.0,0.0,0.0,0.0,0.0,0.0,0.0,0.0,0.0,0.0,0.0,0.0507812686265,0.0937500298023,0.00390625139698,0.0,0.0,0.0,0.0,0.0,0.0,0.0,0.0,0.0
1583762854276439341,85,1583762854109508073,imu,-0.0273437686265,-0.0027465838939,0.124310912498,0.992243315439,0.0,0.0,0.0,0.0,0.0,0.0,0.0,0.0,0.0,0.0,0.0,0.0,0.0,0.0,0.0,0.0,0.0,0.0,0.0,0.0,0.0,-0.0546875186265,0.0859375298023,0.00390625139698,0.0,0.0,0.0,0.0,0.0,0.0,0.0,0.0,0.0
1583762854376407307,86,1583762854208508073,imu,-0.026977557689,-0.0027465838939,0.126272870485,0.991995545443,0.0,0.0,0.0,0.0,0.0,0.0,0.0,0.0,0.0,0.0,0.0,0.0,0.0,0.0,0.0,0.0,0.0,0.0,0.0,0.0,0.0,-0.0156250055879,0.0156250055879,0.00390625139698,0.0,0.0,0.0,0.0,0.0,0.0,0.0,0.0,0.0
1583762854476356902,87,1583762854308508073,imu,-0.0266113467515,-0.0026245135814,0.123829996562,0.992303447516,0.0,0.0,0.0,0.0,0.0,0.0,0.0,0.0,0.0,0.0,0.0,0.0,0.0,0.0,0.0,0.0,0.0,0.0,0.0,0.0,0.0,0.0234375074506,0.00781250279397,0.00390625139698,0.0,0.0,0.0,0.0,0.0,0.0,0.0,0.0,0.0
1583762854576299166,88,1583762854408508073,imu,-0.0263061709702,-0.0026245135814,0.125515611555,0.992091644585,0.0,0.0,0.0,0.0,0.0,0.0,0.0,0.0,0.0,0.0,0.0,0.0,0.0,0.0,0.0,0.0,0.0,0.0,0.0,0.0,0.0,-0.0156250055879,0.0,0.00390625139698,0.0,0.0,0.0,0.0,0.0,0.0,0.0,0.0,0.0
1583762854676350428,89,1583762854508508073,imu,-0.0259399600327,-0.00256347842515,0.126049085935,0.992024005725,0.0,0.0,0.0,0.0,0.0,0.0,0.0,0.0,0.0,0.0,0.0,0.0,0.0,0.0,0.0,0.0,0.0,0.0,0.0,0.0,0.0,-0.0156250055879,0.0,0.00390625139698,0.0,0.0,0.0,0.0,0.0,0.0,0.0,0.0,0.0
1583762854776763753,90,1583762854608508073,imu,-0.0256347842515,-0.00256347842515,0.128592900828,0.9916974669,0.0,0.0,0.0,0.0,0.0,0.0,0.0,0.0,0.0,0.0,0.0,0.0,0.0,0.0,0.0,0.0,0.0,0.0,0.0,0.0,0.0,-0.00781250279397,0.0,-0.0351562611759,0.0,0.0,0.0,0.0,0.0,0.0,0.0,0.0,0.0
1583762854876637200,91,1583762854708508073,imu,-0.0253906436265,-0.00256347842515,0.130062357429,0.991505816009,0.0,0.0,0.0,0.0,0.0,0.0,0.0,0.0,0.0,0.0,0.0,0.0,0.0,0.0,0.0,0.0,0.0,0.0,0.0,0.0,0.0,-0.0156250055879,0.0,0.0117187537253,0.0,0.0,0.0,0.0,0.0,0.0,0.0,0.0,0.0
1583762854976097356,92,1583762854808508073,imu,-0.0251465030015,-0.0025024432689,0.130018333344,0.991511589945,0.0,0.0,0.0,0.0,0.0,0.0,0.0,0.0,0.0,0.0,0.0,0.0,0.0,0.0,0.0,0.0,0.0,0.0,0.0,0.0,0.0,-0.00781250279397,0.0,-0.0273437593132,0.0,0.0,0.0,0.0,0.0,0.0,0.0,0.0,0.0
1583762855076449334,93,1583762854909508073,imu,-0.0249023623765,-0.0025024432689,0.131546778015,0.991309964236,0.0,0.0,0.0,0.0,0.0,0.0,0.0,0.0,0.0,0.0,0.0,0.0,0.0,0.0,0.0,0.0,0.0,0.0,0.0,0.0,0.0,-0.00781250279397,0.0,-0.0195312574506,0.0,0.0,0.0,0.0,0.0,0.0,0.0,0.0,0.0
1583762855176765697,94,1583762855008508073,imu,-0.0246582198888,-0.0025024432689,0.132272910918,0.991213335785,0.0,0.0,0.0,0.0,0.0,0.0,0.0,0.0,0.0,0.0,0.0,0.0,0.0,0.0,0.0,0.0,0.0,0.0,0.0,0.0,0.0,0.0312500111759,0.0,0.0195312574506,0.0,0.0,0.0,0.0,0.0,0.0,0.0,0.0,0.0
1583762855276541366,95,1583762855108508073,imu,-0.0244140792638,-0.00238037272356,0.129871921169,0.991530778187,0.0,0.0,0.0,0.0,0.0,0.0,0.0,0.0,0.0,0.0,0.0,0.0,0.0,0.0,0.0,0.0,0.0,0.0,0.0,0.0,0.0,-0.00781250279397,0.0,-0.0195312574506,0.0,0.0,0.0,0.0,0.0,0.0,0.0,0.0,0.0
1583762855376262106,96,1583762855208508073,imu,-0.0242309737951,-0.00238037272356,0.131061634603,0.991374221944,0.0,0.0,0.0,0.0,0.0,0.0,0.0,0.0,0.0,0.0,0.0,0.0,0.0,0.0,0.0,0.0,0.0,0.0,0.0,0.0,0.0,0.0312500111759,0.0,0.0195312574506,0.0,0.0,0.0,0.0,0.0,0.0,0.0,0.0,0.0
1583762855476176864,97,1583762855308508073,imu,-0.0241089034826,-0.00244140811265,0.134312358571,0.990939044712,0.0,0.0,0.0,0.0,0.0,0.0,0.0,0.0,0.0,0.0,0.0,0.0,0.0,0.0,0.0,0.0,0.0,0.0,0.0,0.0,0.0,-0.0156250055879,0.0,-0.0195312574506,0.0,0.0,0.0,0.0,0.0,0.0,0.0,0.0,0.0
1583762855576387762,98,1583762855408508073,imu,-0.0238647628576,-0.00244140811265,0.135971454446,0.990712755331,0.0,0.0,0.0,0.0,0.0,0.0,0.0,0.0,0.0,0.0,0.0,0.0,0.0,0.0,0.0,0.0,0.0,0.0,0.0,0.0,0.0,-0.0156250055879,0.0,0.0195312574506,0.0,0.0,0.0,0.0,0.0,0.0,0.0,0.0,0.0
1583762855676513969,99,1583762855508508073,imu,-0.0237426925451,-0.0025024432689,0.140198826732,0.990123370587,0.0,0.0,0.0,0.0,0.0,0.0,0.0,0.0,0.0,0.0,0.0,0.0,0.0,0.0,0.0,0.0,0.0,0.0,0.0,0.0,0.0,0.0234375074506,0.0,0.0117187537253,0.0,0.0,0.0,0.0,0.0,0.0,0.0,0.0,0.0
1583762855776868314,100,1583762855608508073,imu,-0.0235595870763,-0.00256347842515,0.143999820103,0.989577713881,0.0,0.0,0.0,0.0,0.0,0.0,0.0,0.0,0.0,0.0,0.0,0.0,0.0,0.0,0.0,0.0,0.0,0.0,0.0,0.0,0.0,0.0234375074506,0.0,-0.0273437593132,0.0,0.0,0.0,0.0,0.0,0.0,0.0,0.0,0.0
1583762855876254376,101,1583762855709508073,imu,-0.0234375167638,-0.0026245135814,0.146470817095,0.989214991667,0.0,0.0,0.0,0.0,0.0,0.0,0.0,0.0,0.0,0.0,0.0,0.0,0.0,0.0,0.0,0.0,0.0,0.0,0.0,0.0,0.0,0.0156250055879,0.0,0.0117187537253,0.0,0.0,0.0,0.0,0.0,0.0,0.0,0.0,0.0
1583762855976074745,102,1583762855808508073,imu,-0.0233154464513,-0.0026245135814,0.14831624738,0.988939983398,0.0,0.0,0.0,0.0,0.0,0.0,0.0,0.0,0.0,0.0,0.0,0.0,0.0,0.0,0.0,0.0,0.0,0.0,0.0,0.0,0.0,0.0156250055879,0.0,0.0117187537253,0.0,0.0,0.0,0.0,0.0,0.0,0.0,0.0,0.0
1583762856076165405,103,1583762855908508073,imu,-0.0231933761388,-0.0026245135814,0.149248822739,0.988799670768,0.0,0.0,0.0,0.0,0.0,0.0,0.0,0.0,0.0,0.0,0.0,0.0,0.0,0.0,0.0,0.0,0.0,0.0,0.0,0.0,0.0,-0.0234375074506,0.0,0.0117187537253,0.0,0.0,0.0,0.0,0.0,0.0,0.0,0.0,0.0
1583762856176087882,104,1583762856007508073,imu,-0.0231933761388,-0.00268554873765,0.151762245744,0.98841702776,0.0,0.0,0.0,0.0,0.0,0.0,0.0,0.0,0.0,0.0,0.0,0.0,0.0,0.0,0.0,0.0,0.0,0.0,0.0,0.0,0.0,0.0156250055879,0.0,0.00390625139698,0.0,0.0,0.0,0.0,0.0,0.0,0.0,0.0,0.0
1583762856276444275,105,1583762856109508073,imu,-0.0230713058263,-0.0027465838939,0.156193977982,0.987726399993,0.0,0.0,0.0,0.0,0.0,0.0,0.0,0.0,0.0,0.0,0.0,0.0,0.0,0.0,0.0,0.0,0.0,0.0,0.0,0.0,0.0,-0.0234375074506,0.0,-0.0273437593132,0.0,0.0,0.0,0.0,0.0,0.0,0.0,0.0,0.0
1583762856376725126,106,1583762856208508073,imu,-0.0230713058263,-0.00280761928298,0.157755125234,0.987478263286,0.0,0.0,0.0,0.0,0.0,0.0,0.0,0.0,0.0,0.0,0.0,0.0,0.0,0.0,0.0,0.0,0.0,0.0,0.0,0.0,0.0,0.0156250055879,0.0,0.0117187537253,0.0,0.0,0.0,0.0,0.0,0.0,0.0,0.0,0.0
1583762856476423559,107,1583762856307508073,imu,-0.0230102706701,-0.00286865443923,0.160766835464,0.986992413656,0.0,0.0,0.0,0.0,0.0,0.0,0.0,0.0,0.0,0.0,0.0,0.0,0.0,0.0,0.0,0.0,0.0,0.0,0.0,0.0,0.0,0.00781250279397,0.0,0.0117187537253,0.0,0.0,0.0,0.0,0.0,0.0,0.0,0.0,0.0
1583762856576090103,108,1583762856347508073,imu,-0.0230102706701,-0.00286865443923,0.160766835464,0.986992413656,0.0,0.0,0.0,0.0,0.0,0.0,0.0,0.0,0.0,0.0,0.0,0.0,0.0,0.0,0.0,0.0,0.0,0.0,0.0,0.0,0.0,-0.0312500111759,-0.00781250279397,0.0117187537253,0.0,0.0,0.0,0.0,0.0,0.0,0.0,0.0,0.0
1583762856676188559,109,1583762856508508073,imu,-0.0227050948888,-0.00286865443923,0.163303438402,0.98657589014,0.0,0.0,0.0,0.0,0.0,0.0,0.0,0.0,0.0,0.0,0.0,0.0,0.0,0.0,0.0,0.0,0.0,0.0,0.0,0.0,0.0,0.0156250055879,-0.00781250279397,0.00390625139698,0.0,0.0,0.0,0.0,0.0,0.0,0.0,0.0,0.0
1583762856776745627,110,1583762856508508073,imu,-0.0227050948888,-0.00286865443923,0.708567466248,0.705643072505,0.0,0.0,0.0,0.0,0.0,0.0,0.0,0.0,0.0,0.0,0.0,0.0,0.0,0.0,0.0,0.0,0.0,0.0,0.0,0.0,0.0,0.0156250055879,-0.00781250279397,0.00390625139698,0.0,0.0,0.0,0.0,0.0,0.0,0.0,0.0,0.0
1583762856876779542,111,1583762856652428007,imu,-0.0225830245763,-0.00292968959548,0.167876334633,0.985808062591,0.0,0.0,0.0,0.0,0.0,0.0,0.0,0.0,0.0,0.0,0.0,0.0,0.0,0.0,0.0,0.0,0.0,0.0,0.0,0.0,0.0,-0.0156250055879,0.0,0.0117187537253,0.0,0.0,0.0,0.0,0.0,0.0,0.0,0.0,0.0
1583762856976353151,112,1583762856813428007,imu,-0.0226440597326,-0.00280761928298,0.162251569433,0.986749425243,0.0,0.0,0.0,0.0,0.0,0.0,0.0,0.0,0.0,0.0,0.0,0.0,0.0,0.0,0.0,0.0,0.0,0.0,0.0,0.0,0.0,0.0312500111759,0.0,0.0117187537253,0.0,0.0,0.0,0.0,0.0,0.0,0.0,0.0,0.0
1583762857076367428,113,1583762856813428007,imu,-0.0226440597326,-0.00280761928298,0.70853977802,0.70567087439,0.0,0.0,0.0,0.0,0.0,0.0,0.0,0.0,0.0,0.0,0.0,0.0,0.0,0.0,0.0,0.0,0.0,0.0,0.0,0.0,0.0,0.0312500111759,0.0,0.0117187537253,0.0,0.0,0.0,0.0,0.0,0.0,0.0,0.0,0.0
1583762857176043101,114,1583762856952428007,imu,-0.0227050948888,-0.0027465838939,0.159188287141,0.987248240939,0.0,0.0,0.0,0.0,0.0,0.0,0.0,0.0,0.0,0.0,0.0,0.0,0.0,0.0,0.0,0.0,0.0,0.0,0.0,0.0,0.0,0.0234375074506,0.0,0.0117187537253,0.0,0.0,0.0,0.0,0.0,0.0,0.0,0.0,0.0
1583762857276349898,115,1583762857013428007,imu,-0.0227050948888,-0.00268554873765,0.157634055777,0.987497597192,0.0,0.0,0.0,0.0,0.0,0.0,0.0,0.0,0.0,0.0,0.0,0.0,0.0,0.0,0.0,0.0,0.0,0.0,0.0,0.0,0.0,0.0234375074506,0.0,0.0117187537253,0.0,0.0,0.0,0.0,0.0,0.0,0.0,0.0,0.0
1583762857376446592,116,1583762857112428007,imu,-0.0226440597326,-0.0027465838939,0.160697294539,0.987003738356,0.0,0.0,0.0,0.0,0.0,0.0,0.0,0.0,0.0,0.0,0.0,0.0,0.0,0.0,0.0,0.0,0.0,0.0,0.0,0.0,0.0,0.0156250055879,0.0,0.0117187537253,0.0,0.0,0.0,0.0,0.0,0.0,0.0,0.0,0.0
1583762857476411742,117,1583762857252428007,imu,-0.0226440597326,-0.00286865443923,0.165794515907,0.986160320889,0.0,0.0,0.0,0.0,0.0,0.0,0.0,0.0,0.0,0.0,0.0,0.0,0.0,0.0,0.0,0.0,0.0,0.0,0.0,0.0,0.0,0.00781250279397,0.0,0.00390625139698,0.0,0.0,0.0,0.0,0.0,0.0,0.0,0.0,0.0
1583762857576190431,118,1583762857353428007,imu,-0.0226440597326,-0.00292968959548,0.169338331806,0.985557978701,0.0,0.0,0.0,0.0,0.0,0.0,0.0,0.0,0.0,0.0,0.0,0.0,0.0,0.0,0.0,0.0,0.0,0.0,0.0,0.0,0.0,0.00781250279397,0.0,-0.0273437593132,0.0,0.0,0.0,0.0,0.0,0.0,0.0,0.0,0.0
1583762857676661285,119,1583762857513428007,imu,-0.0227050948888,-0.00299072475173,0.171331717709,0.985213399476,0.0,0.0,0.0,0.0,0.0,0.0,0.0,0.0,0.0,0.0,0.0,0.0,0.0,0.0,0.0,0.0,0.0,0.0,0.0,0.0,0.0,0.00781250279397,0.0,0.0117187537253,0.0,0.0,0.0,0.0,0.0,0.0,0.0,0.0,0.0
1583762857776584742,120,1583762857613428007,imu,-0.0227661300451,-0.00305175990798,0.173312856229,0.98486682037,0.0,0.0,0.0,0.0,0.0,0.0,0.0,0.0,0.0,0.0,0.0,0.0,0.0,0.0,0.0,0.0,0.0,0.0,0.0,0.0,0.0,0.00781250279397,0.0,0.0117187537253,0.0,0.0,0.0,0.0,0.0,0.0,0.0,0.0,0.0
1583762857876711111,121,1583762857713428007,imu,-0.0227050948888,-0.00311279529706,0.177375166551,0.984143307802,0.0,0.0,0.0,0.0,0.0,0.0,0.0,0.0,0.0,0.0,0.0,0.0,0.0,0.0,0.0,0.0,0.0,0.0,0.0,0.0,0.0,0.0,0.0,-0.0273437593132,0.0,0.0,0.0,0.0,0.0,0.0,0.0,0.0,0.0
1583762857976504036,122,1583762857812428007,imu,-0.0227661300451,-0.00311279529706,0.176821507934,0.984242934611,0.0,0.0,0.0,0.0,0.0,0.0,0.0,0.0,0.0,0.0,0.0,0.0,0.0,0.0,0.0,0.0,0.0,0.0,0.0,0.0,0.0,0.00781250279397,0.0,0.0117187537253,0.0,0.0,0.0,0.0,0.0,0.0,0.0,0.0,0.0
1583762858076206557,123,1583762857913428007,imu,-0.0227661300451,-0.00317383045331,0.179328720694,0.983789210113,0.0,0.0,0.0,0.0,0.0,0.0,0.0,0.0,0.0,0.0,0.0,0.0,0.0,0.0,0.0,0.0,0.0,0.0,0.0,0.0,0.0,0.00781250279397,0.0,-0.0273437593132,0.0,0.0,0.0,0.0,0.0,0.0,0.0,0.0,0.0
1583762858176198322,124,1583762858013428007,imu,-0.0227050948888,-0.00317383045331,0.180893671359,0.983502658696,0.0,0.0,0.0,0.0,0.0,0.0,0.0,0.0,0.0,0.0,0.0,0.0,0.0,0.0,0.0,0.0,0.0,0.0,0.0,0.0,0.0,-0.0312500111759,0.0,0.0117187537253,0.0,0.0,0.0,0.0,0.0,0.0,0.0,0.0,0.0
1583762858276776143,125,1583762858112428007,imu,-0.0227661300451,-0.00323486560956,0.182829371881,0.983144659131,0.0,0.0,0.0,0.0,0.0,0.0,0.0,0.0,0.0,0.0,0.0,0.0,0.0,0.0,0.0,0.0,0.0,0.0,0.0,0.0,0.0,-0.0234375074506,0.0,-0.0195312574506,0.0,0.0,0.0,0.0,0.0,0.0,0.0,0.0,0.0
1583762858376218296,126,1583762858213428007,imu,-0.0227661300451,-0.00323486560956,0.182829371881,0.983144659131,0.0,0.0,0.0,0.0,0.0,0.0,0.0,0.0,0.0,0.0,0.0,0.0,0.0,0.0,0.0,0.0,0.0,0.0,0.0,0.0,0.0,0.0156250055879,0.0,0.0195312574506,0.0,0.0,0.0,0.0,0.0,0.0,0.0,0.0,0.0
1583762858476752408,127,1583762858313428007,imu,-0.0227050948888,-0.00323486560956,0.18339830578,0.98303868766,0.0,0.0,0.0,0.0,0.0,0.0,0.0,0.0,0.0,0.0,0.0,0.0,0.0,0.0,0.0,0.0,0.0,0.0,0.0,0.0,0.0,0.00781250279397,0.0,0.0117187537253,0.0,0.0,0.0,0.0,0.0,0.0,0.0,0.0,0.0
1583762858576915403,128,1583762858413428007,imu,-0.0227050948888,-0.00323486560956,0.18339830578,0.98303868766,0.0,0.0,0.0,0.0,0.0,0.0,0.0,0.0,0.0,0.0,0.0,0.0,0.0,0.0,0.0,0.0,0.0,0.0,0.0,0.0,0.0,0.00781250279397,0.0,-0.0273437593132,0.0,0.0,0.0,0.0,0.0,0.0,0.0,0.0,0.0
1583762858676517113,129,1583762858513428007,imu,-0.0227050948888,-0.00323486560956,0.18339830578,0.98303868766,0.0,0.0,0.0,0.0,0.0,0.0,0.0,0.0,0.0,0.0,0.0,0.0,0.0,0.0,0.0,0.0,0.0,0.0,0.0,0.0,0.0,-0.0312500111759,0.0,0.0117187537253,0.0,0.0,0.0,0.0,0.0,0.0,0.0,0.0,0.0
1583762858776608817,130,1583762858613428007,imu,-0.0227050948888,-0.00323486560956,0.18339830578,0.98303868766,0.0,0.0,0.0,0.0,0.0,0.0,0.0,0.0,0.0,0.0,0.0,0.0,0.0,0.0,0.0,0.0,0.0,0.0,0.0,0.0,0.0,-0.0234375074506,0.0,-0.0273437593132,0.0,0.0,0.0,0.0,0.0,0.0,0.0,0.0,0.0
1583762858876445231,131,1583762858713428007,imu,-0.0227050948888,-0.00317383045331,0.180893671359,0.983502658696,0.0,0.0,0.0,0.0,0.0,0.0,0.0,0.0,0.0,0.0,0.0,0.0,0.0,0.0,0.0,0.0,0.0,0.0,0.0,0.0,0.0,0.0156250055879,0.0,0.0195312574506,0.0,0.0,0.0,0.0,0.0,0.0,0.0,0.0,0.0
1583762858976185314,132,1583762858812428007,imu,-0.0227050948888,-0.00323486560956,0.18339830578,0.98303868766,0.0,0.0,0.0,0.0,0.0,0.0,0.0,0.0,0.0,0.0,0.0,0.0,0.0,0.0,0.0,0.0,0.0,0.0,0.0,0.0,0.0,0.00781250279397,0.0,0.0117187537253,0.0,0.0,0.0,0.0,0.0,0.0,0.0,0.0,0.0
1583762859076193917,133,1583762858912428007,imu,-0.0227050948888,-0.00323486560956,0.18339830578,0.98303868766,0.0,0.0,0.0,0.0,0.0,0.0,0.0,0.0,0.0,0.0,0.0,0.0,0.0,0.0,0.0,0.0,0.0,0.0,0.0,0.0,0.0,0.00781250279397,0.0,-0.0273437593132,0.0,0.0,0.0,0.0,0.0,0.0,0.0,0.0,0.0
1583762859176879866,134,1583762859013428007,imu,-0.0227050948888,-0.00323486560956,0.18339830578,0.98303868766,0.0,0.0,0.0,0.0,0.0,0.0,0.0,0.0,0.0,0.0,0.0,0.0,0.0,0.0,0.0,0.0,0.0,0.0,0.0,0.0,0.0,-0.0312500111759,0.0,0.0117187537253,0.0,0.0,0.0,0.0,0.0,0.0,0.0,0.0,0.0
1583762859276409012,135,1583762859113428007,imu,-0.0227050948888,-0.00317383045331,0.180893671359,0.983502658696,0.0,0.0,0.0,0.0,0.0,0.0,0.0,0.0,0.0,0.0,0.0,0.0,0.0,0.0,0.0,0.0,0.0,0.0,0.0,0.0,0.0,0.0156250055879,0.0,0.0117187537253,0.0,0.0,0.0,0.0,0.0,0.0,0.0,0.0,0.0
1583762859376493544,136,1583762859216889921,imu,-0.0227050948888,-0.00317383045331,0.180893671359,0.983502658696,0.0,0.0,0.0,0.0,0.0,0.0,0.0,0.0,0.0,0.0,0.0,0.0,0.0,0.0,0.0,0.0,0.0,0.0,0.0,0.0,0.0,0.0156250055879,0.0,0.0117187537253,0.0,0.0,0.0,0.0,0.0,0.0,0.0,0.0,0.0
1583762859476435235,137,1583762859317889921,imu,-0.0227050948888,-0.00323486560956,0.18339830578,0.98303868766,0.0,0.0,0.0,0.0,0.0,0.0,0.0,0.0,0.0,0.0,0.0,0.0,0.0,0.0,0.0,0.0,0.0,0.0,0.0,0.0,0.0,0.00781250279397,0.0,0.00390625139698,0.0,0.0,0.0,0.0,0.0,0.0,0.0,0.0,0.0
1583762859576091201,138,1583762859417889921,imu,-0.0227050948888,-0.00323486560956,0.18339830578,0.98303868766,0.0,0.0,0.0,0.0,0.0,0.0,0.0,0.0,0.0,0.0,0.0,0.0,0.0,0.0,0.0,0.0,0.0,0.0,0.0,0.0,0.0,0.00781250279397,0.0,0.00390625139698,0.0,0.0,0.0,0.0,0.0,0.0,0.0,0.0,0.0
1583762859676335855,139,1583762859516889921,imu,-0.0227050948888,-0.00317383045331,0.180893671359,0.983502658696,0.0,0.0,0.0,0.0,0.0,0.0,0.0,0.0,0.0,0.0,0.0,0.0,0.0,0.0,0.0,0.0,0.0,0.0,0.0,0.0,0.0,-0.0312500111759,0.0,0.00390625139698,0.0,0.0,0.0,0.0,0.0,0.0,0.0,0.0,0.0
1583762859776303047,140,1583762859617889921,imu,-0.0226440597326,-0.00317383045331,0.180450057592,0.983584148263,0.0,0.0,0.0,0.0,0.0,0.0,0.0,0.0,0.0,0.0,0.0,0.0,0.0,0.0,0.0,0.0,0.0,0.0,0.0,0.0,0.0,0.0156250055879,0.0,0.00390625139698,0.0,0.0,0.0,0.0,0.0,0.0,0.0,0.0,0.0
1583762859876238197,141,1583762859717889921,imu,-0.0227050948888,-0.00323486560956,0.181404677191,0.983408533161,0.0,0.0,0.0,0.0,0.0,0.0,0.0,0.0,0.0,0.0,0.0,0.0,0.0,0.0,0.0,0.0,0.0,0.0,0.0,0.0,0.0,0.0156250055879,0.0,-0.0351562611759,0.0,0.0,0.0,0.0,0.0,0.0,0.0,0.0,0.0
1583762859976218064,142,1583762859816889921,imu,-0.0227050948888,-0.00323486560956,0.181404677191,0.983408533161,0.0,0.0,0.0,0.0,0.0,0.0,0.0,0.0,0.0,0.0,0.0,0.0,0.0,0.0,0.0,0.0,0.0,0.0,0.0,0.0,0.0,0.00781250279397,0.0,0.0117187537253,0.0,0.0,0.0,0.0,0.0,0.0,0.0,0.0,0.0
1583762860076255404,143,1583762859917889921,imu,-0.0226440597326,-0.00323486560956,0.182963617812,0.983119684757,0.0,0.0,0.0,0.0,0.0,0.0,0.0,0.0,0.0,0.0,0.0,0.0,0.0,0.0,0.0,0.0,0.0,0.0,0.0,0.0,0.0,-0.0312500111759,0.0,-0.0273437593132,0.0,0.0,0.0,0.0,0.0,0.0,0.0,0.0,0.0
1583762860176359054,144,1583762860016889921,imu,-0.0226440597326,-0.00317383045331,0.180450057592,0.983584148263,0.0,0.0,0.0,0.0,0.0,0.0,0.0,0.0,0.0,0.0,0.0,0.0,0.0,0.0,0.0,0.0,0.0,0.0,0.0,0.0,0.0,0.0156250055879,0.0,0.0117187537253,0.0,0.0,0.0,0.0,0.0,0.0,0.0,0.0,0.0
1583762860276349782,145,1583762860116889921,imu,-0.0226440597326,-0.00311279529706,0.176929245925,0.984223573146,0.0,0.0,0.0,0.0,0.0,0.0,0.0,0.0,0.0,0.0,0.0,0.0,0.0,0.0,0.0,0.0,0.0,0.0,0.0,0.0,0.0,-0.0156250055879,0.0,0.0117187537253,0.0,0.0,0.0,0.0,0.0,0.0,0.0,0.0,0.0
1583762860376460480,146,1583762860217889921,imu,-0.0226440597326,-0.00299072475173,0.171872989905,0.985119117336,0.0,0.0,0.0,0.0,0.0,0.0,0.0,0.0,0.0,0.0,0.0,0.0,0.0,0.0,0.0,0.0,0.0,0.0,0.0,0.0,0.0,-0.00781250279397,0.0,-0.0273437593132,0.0,0.0,0.0,0.0,0.0,0.0,0.0,0.0,0.0
1583762860476703916,147,1583762860316889921,imu,-0.0227050948888,-0.00286865443923,0.166269246232,0.986080391123,0.0,0.0,0.0,0.0,0.0,0.0,0.0,0.0,0.0,0.0,0.0,0.0,0.0,0.0,0.0,0.0,0.0,0.0,0.0,0.0,0.0,0.0312500111759,0.0,0.0117187537253,0.0,0.0,0.0,0.0,0.0,0.0,0.0,0.0,0.0
1583762860576531456,148,1583762860416889921,imu,-0.0226440597326,-0.00280761928298,0.164256115886,0.986417725101,0.0,0.0,0.0,0.0,0.0,0.0,0.0,0.0,0.0,0.0,0.0,0.0,0.0,0.0,0.0,0.0,0.0,0.0,0.0,0.0,0.0,-0.00781250279397,0.0,0.0117187537253,0.0,0.0,0.0,0.0,0.0,0.0,0.0,0.0,0.0
1583762860676565724,149,1583762860517889921,imu,-0.0226440597326,-0.0027465838939,0.161708617676,0.986838549596,0.0,0.0,0.0,0.0,0.0,0.0,0.0,0.0,0.0,0.0,0.0,0.0,0.0,0.0,0.0,0.0,0.0,0.0,0.0,0.0,0.0,-0.00781250279397,0.0,-0.0273437593132,0.0,0.0,0.0,0.0,0.0,0.0,0.0,0.0,0.0
1583762860776512896,150,1583762860616889921,imu,-0.0225830245763,-0.00268554873765,0.159673108782,0.987169943997,0.0,0.0,0.0,0.0,0.0,0.0,0.0,0.0,0.0,0.0,0.0,0.0,0.0,0.0,0.0,0.0,0.0,0.0,0.0,0.0,0.0,-0.00781250279397,0.0,0.0117187537253,0.0,0.0,0.0,0.0,0.0,0.0,0.0,0.0,0.0
1583762860876704210,151,1583762860716889921,imu,-0.0226440597326,-0.0026245135814,0.156601056238,0.987661940739,0.0,0.0,0.0,0.0,0.0,0.0,0.0,0.0,0.0,0.0,0.0,0.0,0.0,0.0,0.0,0.0,0.0,0.0,0.0,0.0,0.0,0.0312500111759,-0.00781250279397,-0.0273437593132,0.0,0.0,0.0,0.0,0.0,0.0,0.0,0.0,0.0
1583762860976096245,152,1583762860817889921,imu,-0.0225830245763,-0.00268554873765,0.159673108782,0.987169943997,0.0,0.0,0.0,0.0,0.0,0.0,0.0,0.0,0.0,0.0,0.0,0.0,0.0,0.0,0.0,0.0,0.0,0.0,0.0,0.0,0.0,0.0234375074506,0.0,0.0117187537253,0.0,0.0,0.0,0.0,0.0,0.0,0.0,0.0,0.0
1583762861076424986,153,1583762860916889921,imu,-0.0226440597326,-0.0026245135814,0.157630482189,0.987498167636,0.0,0.0,0.0,0.0,0.0,0.0,0.0,0.0,0.0,0.0,0.0,0.0,0.0,0.0,0.0,0.0,0.0,0.0,0.0,0.0,0.0,-0.0156250055879,-0.00781250279397,0.0117187537253,0.0,0.0,0.0,0.0,0.0,0.0,0.0,0.0,0.0
1583762861176228549,154,1583762861016889921,imu,-0.0227050948888,-0.0025024432689,0.150981132079,0.98853664462,0.0,0.0,0.0,0.0,0.0,0.0,0.0,0.0,0.0,0.0,0.0,0.0,0.0,0.0,0.0,0.0,0.0,0.0,0.0,0.0,0.0,-0.00781250279397,0.0,0.0117187537253,0.0,0.0,0.0,0.0,0.0,0.0,0.0,0.0,0.0
1583762861276953597,155,1583762861117889921,imu,-0.0227050948888,-0.00244140811265,0.148418805916,0.988924596747,0.0,0.0,0.0,0.0,0.0,0.0,0.0,0.0,0.0,0.0,0.0,0.0,0.0,0.0,0.0,0.0,0.0,0.0,0.0,0.0,0.0,-0.00781250279397,0.0,0.0117187537253,0.0,0.0,0.0,0.0,0.0,0.0,0.0,0.0,0.0
1583762861376041406,156,1583762861216889921,imu,-0.0227050948888,-0.00238037272356,0.145852479907,0.989306349977,0.0,0.0,0.0,0.0,0.0,0.0,0.0,0.0,0.0,0.0,0.0,0.0,0.0,0.0,0.0,0.0,0.0,0.0,0.0,0.0,0.0,0.0,0.0,-0.0273437593132,0.0,0.0,0.0,0.0,0.0,0.0,0.0,0.0,0.0
1583762861476316014,157,1583762861318889921,imu,-0.0226440597326,-0.00238037272356,0.147378485824,0.98908016961,0.0,0.0,0.0,0.0,0.0,0.0,0.0,0.0,0.0,0.0,0.0,0.0,0.0,0.0,0.0,0.0,0.0,0.0,0.0,0.0,0.0,-0.00781250279397,0.0,0.0195312574506,0.0,0.0,0.0,0.0,0.0,0.0,0.0,0.0,0.0
1583762861576218609,158,1583762861417889921,imu,-0.0226440597326,-0.00238037272356,0.147378485824,0.98908016961,0.0,0.0,0.0,0.0,0.0,0.0,0.0,0.0,0.0,0.0,0.0,0.0,0.0,0.0,0.0,0.0,0.0,0.0,0.0,0.0,0.0,0.0312500111759,0.0,0.0117187537253,0.0,0.0,0.0,0.0,0.0,0.0,0.0,0.0,0.0
1583762861676185958,159,1583762861516889921,imu,-0.0227050948888,-0.00238037272356,0.146889390112,0.989152924007,0.0,0.0,0.0,0.0,0.0,0.0,0.0,0.0,0.0,0.0,0.0,0.0,0.0,0.0,0.0,0.0,0.0,0.0,0.0,0.0,0.0,0.0156250055879,0.0,0.0117187537253,0.0,0.0,0.0,0.0,0.0,0.0,0.0,0.0,0.0
1583762861776451996,160,1583762861617889921,imu,-0.0227050948888,-0.00244140811265,0.149452691399,0.98876887746,0.0,0.0,0.0,0.0,0.0,0.0,0.0,0.0,0.0,0.0,0.0,0.0,0.0,0.0,0.0,0.0,0.0,0.0,0.0,0.0,0.0,0.0156250055879,0.0,0.00390625139698,0.0,0.0,0.0,0.0,0.0,0.0,0.0,0.0,0.0
1583762861876670779,161,1583762861722181926,imu,-0.0227050948888,-0.0025024432689,0.152011954771,0.988378654973,0.0,0.0,0.0,0.0,0.0,0.0,0.0,0.0,0.0,0.0,0.0,0.0,0.0,0.0,0.0,0.0,0.0,0.0,0.0,0.0,0.0,-0.0234375074506,0.0,-0.0273437593132,0.0,0.0,0.0,0.0,0.0,0.0,0.0,0.0,0.0
1583762861976496092,162,1583762861822181926,imu,-0.0227050948888,-0.00256347842515,0.154567153158,0.987982284844,0.0,0.0,0.0,0.0,0.0,0.0,0.0,0.0,0.0,0.0,0.0,0.0,0.0,0.0,0.0,0.0,0.0,0.0,0.0,0.0,0.0,0.0156250055879,0.0,0.0117187537253,0.0,0.0,0.0,0.0,0.0,0.0,0.0,0.0,0.0
1583762862076444743,163,1583762861923181926,imu,-0.0227050948888,-0.00268554873765,0.159665209713,0.987171221626,0.0,0.0,0.0,0.0,0.0,0.0,0.0,0.0,0.0,0.0,0.0,0.0,0.0,0.0,0.0,0.0,0.0,0.0,0.0,0.0,0.0,0.00781250279397,0.0,0.0117187537253,0.0,0.0,0.0,0.0,0.0,0.0,0.0,0.0,0.0
1583762862176298120,164,1583762862022181926,imu,-0.0227050948888,-0.0027465838939,0.162207996335,0.986756588995,0.0,0.0,0.0,0.0,0.0,0.0,0.0,0.0,0.0,0.0,0.0,0.0,0.0,0.0,0.0,0.0,0.0,0.0,0.0,0.0,0.0,0.00781250279397,0.0,0.0117187537253,0.0,0.0,0.0,0.0,0.0,0.0,0.0,0.0,0.0
1583762862276643948,165,1583762862122181926,imu,-0.0226440597326,-0.00292968959548,0.152342139457,0.988327816337,0.0,0.0,0.0,0.0,0.0,0.0,0.0,0.0,0.0,0.0,0.0,0.0,0.0,0.0,0.0,0.0,0.0,0.0,0.0,0.0,0.0,0.00781250279397,0.0,0.0117187537253,0.0,0.0,0.0,0.0,0.0,0.0,0.0,0.0,0.0
1583762862376354626,166,1583762862223181926,imu,-0.0227661300451,-0.00317383045331,0.16819640831,0.985753502774,0.0,0.0,0.0,0.0,0.0,0.0,0.0,0.0,0.0,0.0,0.0,0.0,0.0,0.0,0.0,0.0,0.0,0.0,0.0,0.0,0.0,0.0429687649012,0.0,0.0117187537253,0.0,0.0,0.0,0.0,0.0,0.0,0.0,0.0,0.0
1583762862476541315,167,1583762862323181926,imu,-0.0226440597326,-0.00390625279397,0.403755562013,0.91486690078,0.0,0.0,0.0,0.0,0.0,0.0,0.0,0.0,0.0,0.0,0.0,0.0,0.0,0.0,0.0,0.0,0.0,0.0,0.0,0.0,0.0,0.203125074506,-0.0156250055879,-0.0351562611759,0.0,0.0,0.0,0.0,0.0,0.0,0.0,0.0,0.0
1583762862576140247,168,1583762862422181926,imu,-0.0227050948888,-0.00469971029088,0.574723277759,0.818347819697,0.0,0.0,0.0,0.0,0.0,0.0,0.0,0.0,0.0,0.0,0.0,0.0,0.0,0.0,0.0,0.0,0.0,0.0,0.0,0.0,0.0,0.00390625139698,0.164062559605,0.0507812686265,0.0,0.0,0.0,0.0,0.0,0.0,0.0,0.0,0.0
1583762862676822064,169,1583762862523181926,imu,-0.0227050948888,-0.00524902716279,0.642064225568,0.766650852896,0.0,0.0,0.0,0.0,0.0,0.0,0.0,0.0,0.0,0.0,0.0,0.0,0.0,0.0,0.0,0.0,0.0,0.0,0.0,0.0,0.0,-0.171875059605,0.0,-0.0273437593132,0.0,0.0,0.0,0.0,0.0,0.0,0.0,0.0,0.0
1583762862776535083,170,1583762862622181926,imu,-0.0225830245763,-0.00549316778779,0.670899542994,0.741548247392,0.0,0.0,0.0,0.0,0.0,0.0,0.0,0.0,0.0,0.0,0.0,0.0,0.0,0.0,0.0,0.0,0.0,0.0,0.0,0.0,0.0,-0.0195312574506,0.0312500111759,0.0117187537253,0.0,0.0,0.0,0.0,0.0,0.0,0.0,0.0,0.0
1583762862876545565,171,1583762862722181926,imu,-0.0223999191076,-0.0056762737222,0.685277300765,0.72828223997,0.0,0.0,0.0,0.0,0.0,0.0,0.0,0.0,0.0,0.0,0.0,0.0,0.0,0.0,0.0,0.0,0.0,0.0,0.0,0.0,0.0,-0.0703125223517,-0.0156250055879,-0.0273437593132,0.0,0.0,0.0,0.0,0.0,0.0,0.0,0.0,0.0
1583762862976116024,172,1583762862823181926,imu,-0.0222778487951,-0.0056762737222,0.693365697815,0.720585879055,0.0,0.0,0.0,0.0,0.0,0.0,0.0,0.0,0.0,0.0,0.0,0.0,0.0,0.0,0.0,0.0,0.0,0.0,0.0,0.0,0.0,0.0195312574506,0.0625000223517,0.0117187537253,0.0,0.0,0.0,0.0,0.0,0.0,0.0,0.0,0.0
1583762863076455017,173,1583762862923181926,imu,-0.0222168136388,-0.00573730887845,0.698287591692,0.715817322568,0.0,0.0,0.0,0.0,0.0,0.0,0.0,0.0,0.0,0.0,0.0,0.0,0.0,0.0,0.0,0.0,0.0,0.0,0.0,0.0,0.0,0.0,-0.0585937723517,0.00390625139698,0.0,0.0,0.0,0.0,0.0,0.0,0.0,0.0,0.0
1583762863176181923,174,1583762863022181926,imu,-0.0220337063074,-0.0057983440347,0.701574198701,0.71259641012,0.0,0.0,0.0,0.0,0.0,0.0,0.0,0.0,0.0,0.0,0.0,0.0,0.0,0.0,0.0,0.0,0.0,0.0,0.0,0.0,0.0,0.00781250279397,0.0546875186265,0.00390625139698,0.0,0.0,0.0,0.0,0.0,0.0,0.0,0.0,0.0
1583762863276317287,175,1583762863123181926,imu,-0.0219726711512,-0.0057983440347,0.703739317184,0.710458284102,0.0,0.0,0.0,0.0,0.0,0.0,0.0,0.0,0.0,0.0,0.0,0.0,0.0,0.0,0.0,0.0,0.0,0.0,0.0,0.0,0.0,0.0156250055879,-0.0234375074506,0.00390625139698,0.0,0.0,0.0,0.0,0.0,0.0,0.0,0.0,0.0
1583762863376836935,176,1583762863222181926,imu,-0.0217285305262,-0.00585937919095,0.705451398347,0.708758297708,0.0,0.0,0.0,0.0,0.0,0.0,0.0,0.0,0.0,0.0,0.0,0.0,0.0,0.0,0.0,0.0,0.0,0.0,0.0,0.0,0.0,-0.0234375074506,0.0546875186265,0.00390625139698,0.0,0.0,0.0,0.0,0.0,0.0,0.0,0.0,0.0
1583762863476434889,177,1583762863322181926,imu,-0.0216674953699,-0.00585937919095,0.706583976555,0.707629199564,0.0,0.0,0.0,0.0,0.0,0.0,0.0,0.0,0.0,0.0,0.0,0.0,0.0,0.0,0.0,0.0,0.0,0.0,0.0,0.0,0.0,0.0156250055879,-0.0234375074506,0.00390625139698,0.0,0.0,0.0,0.0,0.0,0.0,0.0,0.0,0.0
1583762863576247574,178,1583762863423181926,imu,-0.0214843899012,-0.00598144950345,0.707502538459,0.70671080229,0.0,0.0,0.0,0.0,0.0,0.0,0.0,0.0,0.0,0.0,0.0,0.0,0.0,0.0,0.0,0.0,0.0,0.0,0.0,0.0,0.0,-0.0234375074506,0.0156250055879,0.00390625139698,0.0,0.0,0.0,0.0,0.0,0.0,0.0,0.0,0.0
1583762863676341676,179,1583762863523181926,imu,-0.0213012844324,-0.00610351981595,0.708230497957,0.705981275789,0.0,0.0,0.0,0.0,0.0,0.0,0.0,0.0,0.0,0.0,0.0,0.0,0.0,0.0,0.0,0.0,0.0,0.0,0.0,0.0,0.0,-0.0156250055879,0.00781250279397,-0.0351562611759,0.0,0.0,0.0,0.0,0.0,0.0,0.0,0.0,0.0
1583762863776299381,180,1583762863623181926,imu,-0.0209961086512,-0.00622559059411,0.708841593706,0.705367702006,0.0,0.0,0.0,0.0,0.0,0.0,0.0,0.0,0.0,0.0,0.0,0.0,0.0,0.0,0.0,0.0,0.0,0.0,0.0,0.0,0.0,0.0156250055879,-0.0312500111759,0.0117187537253,0.0,0.0,0.0,0.0,0.0,0.0,0.0,0.0,0.0
1583762863876603692,181,1583762863723181926,imu,-0.0208740383387,-0.00653076637536,0.709291929173,0.704914859547,0.0,0.0,0.0,0.0,0.0,0.0,0.0,0.0,0.0,0.0,0.0,0.0,0.0,0.0,0.0,0.0,0.0,0.0,0.0,0.0,0.0,0.0156250055879,0.0156250055879,-0.0273437593132,0.0,0.0,0.0,0.0,0.0,0.0,0.0,0.0,0.0
1583762863976092346,182,1583762863822181926,imu,-0.0205078274012,-0.00671387184411,0.709704537683,0.704499445843,0.0,0.0,0.0,0.0,0.0,0.0,0.0,0.0,0.0,0.0,0.0,0.0,0.0,0.0,0.0,0.0,0.0,0.0,0.0,0.0,0.0,0.0156250055879,0.0546875186265,-0.0273437593132,0.0,0.0,0.0,0.0,0.0,0.0,0.0,0.0,0.0
1583762864076466012,183,1583762863921181926,imu,-0.0203247219324,-0.00695801293477,0.710012705996,0.704188864811,0.0,0.0,0.0,0.0,0.0,0.0,0.0,0.0,0.0,0.0,0.0,0.0,0.0,0.0,0.0,0.0,0.0,0.0,0.0,0.0,0.0,-0.0234375074506,0.00781250279397,0.0507812686265,0.0,0.0,0.0,0.0,0.0,0.0,0.0,0.0,0.0
1583762864176305110,184,1583762864023181926,imu,-0.0200195461512,-0.00708008324727,0.710279432276,0.703919830723,0.0,0.0,0.0,0.0,0.0,0.0,0.0,0.0,0.0,0.0,0.0,0.0,0.0,0.0,0.0,0.0,0.0,0.0,0.0,0.0,0.0,0.0507812686265,0.0468750149012,0.0117187537253,0.0,0.0,0.0,0.0,0.0,0.0,0.0,0.0,0.0
1583762864276225566,185,1583762864123181926,imu,-0.0199585109949,-0.00714111840352,0.71045140622,0.703746260665,0.0,0.0,0.0,0.0,0.0,0.0,0.0,0.0,0.0,0.0,0.0,0.0,0.0,0.0,0.0,0.0,0.0,0.0,0.0,0.0,0.0,0.0234375074506,-0.00781250279397,0.00390625139698,0.0,0.0,0.0,0.0,0.0,0.0,0.0,0.0,0.0
1583762864375970437,186,1583762864123181926,imu,-0.0199585109949,-0.00714111840352,0.711814200445,0.702367812506,0.0,0.0,0.0,0.0,0.0,0.0,0.0,0.0,0.0,0.0,0.0,0.0,0.0,0.0,0.0,0.0,0.0,0.0,0.0,0.0,0.0,0.0234375074506,-0.00781250279397,0.00390625139698,0.0,0.0,0.0,0.0,0.0,0.0,0.0,0.0,0.0
1583762864476409812,187,1583762864328069911,imu,-0.0194702278823,-0.00732422387227,0.710775872106,0.703418552238,0.0,0.0,0.0,0.0,0.0,0.0,0.0,0.0,0.0,0.0,0.0,0.0,0.0,0.0,0.0,0.0,0.0,0.0,0.0,0.0,0.0,0.0507812686265,-0.0234375074506,0.00390625139698,0.0,0.0,0.0,0.0,0.0,0.0,0.0,0.0,0.0
1583762864576150447,188,1583762864427069911,imu,-0.0192871224135,-0.00750732980669,0.710906552311,0.703286480662,0.0,0.0,0.0,0.0,0.0,0.0,0.0,0.0,0.0,0.0,0.0,0.0,0.0,0.0,0.0,0.0,0.0,0.0,0.0,0.0,0.0,0.00781250279397,-0.0156250055879,0.00390625139698,0.0,0.0,0.0,0.0,0.0,0.0,0.0,0.0,0.0
1583762864676825445,189,1583762864527069911,imu,-0.0190429817885,-0.00775147043169,0.711027931293,0.703163765364,0.0,0.0,0.0,0.0,0.0,0.0,0.0,0.0,0.0,0.0,0.0,0.0,0.0,0.0,0.0,0.0,0.0,0.0,0.0,0.0,0.0,0.0351562611759,0.0234375074506,-0.0273437593132,0.0,0.0,0.0,0.0,0.0,0.0,0.0,0.0,0.0
1583762864776398379,190,1583762864627069911,imu,-0.0187988411635,-0.00793457590044,0.711132680096,0.703057829271,0.0,0.0,0.0,0.0,0.0,0.0,0.0,0.0,0.0,0.0,0.0,0.0,0.0,0.0,0.0,0.0,0.0,0.0,0.0,0.0,0.0,-0.00781250279397,-0.0156250055879,0.0117187537253,0.0,0.0,0.0,0.0,0.0,0.0,0.0,0.0,0.0
1583762864876661418,191,1583762864727069911,imu,-0.0185547005385,-0.00817871652544,0.711227054876,0.702962357749,0.0,0.0,0.0,0.0,0.0,0.0,0.0,0.0,0.0,0.0,0.0,0.0,0.0,0.0,0.0,0.0,0.0,0.0,0.0,0.0,0.0,-0.00781250279397,-0.0156250055879,0.0117187537253,0.0,0.0,0.0,0.0,0.0,0.0,0.0,0.0,0.0
1583762864976162986,192,1583762864828069911,imu,-0.018432630226,-0.00842285715044,0.711300931263,0.702887604944,0.0,0.0,0.0,0.0,0.0,0.0,0.0,0.0,0.0,0.0,0.0,0.0,0.0,0.0,0.0,0.0,0.0,0.0,0.0,0.0,0.0,-0.00781250279397,0.0234375074506,0.0117187537253,0.0,0.0,0.0,0.0,0.0,0.0,0.0,0.0,0.0
1583762865076317921,193,1583762864928069911,imu,-0.018188489601,-0.00866699870676,0.711373775852,0.70281388079,0.0,0.0,0.0,0.0,0.0,0.0,0.0,0.0,0.0,0.0,0.0,0.0,0.0,0.0,0.0,0.0,0.0,0.0,0.0,0.0,0.0,0.0195312574506,0.0234375074506,0.00390625139698,0.0,0.0,0.0,0.0,0.0,0.0,0.0,0.0,0.0
1583762865176531114,194,1583762864968069911,imu,-0.018188489601,-0.00866699870676,0.711373775852,0.70281388079,0.0,0.0,0.0,0.0,0.0,0.0,0.0,0.0,0.0,0.0,0.0,0.0,0.0,0.0,0.0,0.0,0.0,0.0,0.0,0.0,0.0,-0.125000044703,-0.0234375074506,0.00390625139698,0.0,0.0,0.0,0.0,0.0,0.0,0.0,0.0,0.0
1583762865276479063,195,1583762865128069911,imu,-0.017700208351,-0.00897217448801,0.711487022757,0.702699236123,0.0,0.0,0.0,0.0,0.0,0.0,0.0,0.0,0.0,0.0,0.0,0.0,0.0,0.0,0.0,0.0,0.0,0.0,0.0,0.0,0.0,-0.0468750149012,-0.0312500111759,-0.0351562611759,0.0,0.0,0.0,0.0,0.0,0.0,0.0,0.0,0.0
1583762865376717739,196,1583762865227069911,imu,-0.017456067726,-0.00915527995676,0.711529212152,0.702656516553,0.0,0.0,0.0,0.0,0.0,0.0,0.0,0.0,0.0,0.0,0.0,0.0,0.0,0.0,0.0,0.0,0.0,0.0,0.0,0.0,0.0,0.0273437593132,0.00781250279397,0.0117187537253,0.0,0.0,0.0,0.0,0.0,0.0,0.0,0.0,0.0
1583762865476558046,197,1583762865267069911,imu,-0.017456067726,-0.00915527995676,0.711529212152,0.702656516553,0.0,0.0,0.0,0.0,0.0,0.0,0.0,0.0,0.0,0.0,0.0,0.0,0.0,0.0,0.0,0.0,0.0,0.0,0.0,0.0,0.0,-0.183593809605,0.0390625149012,-0.0195312574506,0.0,0.0,0.0,0.0,0.0,0.0,0.0,0.0,0.0
1583762865577144226,198,1583762865428069911,imu,-0.017456067726,-0.00872803386301,0.711523424054,0.702662377691,0.0,0.0,0.0,0.0,0.0,0.0,0.0,0.0,0.0,0.0,0.0,0.0,0.0,0.0,0.0,0.0,0.0,0.0,0.0,0.0,0.0,-0.136718794703,-0.0390625149012,0.0195312574506,0.0,0.0,0.0,0.0,0.0,0.0,0.0,0.0,0.0
1583762865676281468,199,1583762865528069911,imu,-0.0176391731948,-0.00830078683794,0.711499162134,0.702686944722,0.0,0.0,0.0,0.0,0.0,0.0,0.0,0.0,0.0,0.0,0.0,0.0,0.0,0.0,0.0,0.0,0.0,0.0,0.0,0.0,0.0,0.0546875186265,0.0546875186265,0.0195312574506,0.0,0.0,0.0,0.0,0.0,0.0,0.0,0.0,0.0
1583762865776264837,200,1583762865627069911,imu,-0.017700208351,-0.00805664621294,0.711488397222,0.702697844467,0.0,0.0,0.0,0.0,0.0,0.0,0.0,0.0,0.0,0.0,0.0,0.0,0.0,0.0,0.0,0.0,0.0,0.0,0.0,0.0,0.0,0.121093794703,-0.0234375074506,0.0117187537253,0.0,0.0,0.0,0.0,0.0,0.0,0.0,0.0,0.0
1583762865876415269,201,1583762865727069911,imu,-0.017700208351,-0.00799561105669,0.711486975608,0.702699283862,0.0,0.0,0.0,0.0,0.0,0.0,0.0,0.0,0.0,0.0,0.0,0.0,0.0,0.0,0.0,0.0,0.0,0.0,0.0,0.0,0.0,0.0468750149012,0.0156250055879,0.0117187537253,0.0,0.0,0.0,0.0,0.0,0.0,0.0,0.0,0.0
1583762865976079987,202,1583762865827069911,imu,-0.0178222786635,-0.00805664621294,0.711481292593,0.702705037901,0.0,0.0,0.0,0.0,0.0,0.0,0.0,0.0,0.0,0.0,0.0,0.0,0.0,0.0,0.0,0.0,0.0,0.0,0.0,0.0,0.0,0.0664062723517,-0.0234375074506,-0.0273437593132,0.0,0.0,0.0,0.0,0.0,0.0,0.0,0.0,0.0
1583762866076330318,203,1583762865927069911,imu,-0.0178833138198,-0.00817871652544,0.711481126495,0.702705206072,0.0,0.0,0.0,0.0,0.0,0.0,0.0,0.0,0.0,0.0,0.0,0.0,0.0,0.0,0.0,0.0,0.0,0.0,0.0,0.0,0.0,0.0156250055879,0.0156250055879,0.0117187537253,0.0,0.0,0.0,0.0,0.0,0.0,0.0,0.0,0.0
1583762866176248070,204,1583762866027069911,imu,-0.0178222786635,-0.00830078683794,0.711488848526,0.702697387517,0.0,0.0,0.0,0.0,0.0,0.0,0.0,0.0,0.0,0.0,0.0,0.0,0.0,0.0,0.0,0.0,0.0,0.0,0.0,0.0,0.0,0.0156250055879,-0.0156250055879,-0.0273437593132,0.0,0.0,0.0,0.0,0.0,0.0,0.0,0.0,0.0
1583762866276427985,205,1583762866127069911,imu,-0.0178222786635,-0.00842285715044,0.711492529877,0.702693660089,0.0,0.0,0.0,0.0,0.0,0.0,0.0,0.0,0.0,0.0,0.0,0.0,0.0,0.0,0.0,0.0,0.0,0.0,0.0,0.0,0.0,0.0507812686265,-0.0234375074506,0.0117187537253,0.0,0.0,0.0,0.0,0.0,0.0,0.0,0.0,0.0
1583762866376201767,206,1583762866226069911,imu,-0.0178222786635,-0.00860596355051,0.711497981825,0.702688139831,0.0,0.0,0.0,0.0,0.0,0.0,0.0,0.0,0.0,0.0,0.0,0.0,0.0,0.0,0.0,0.0,0.0,0.0,0.0,0.0,0.0,-0.00781250279397,0.0234375074506,0.0117187537253,0.0,0.0,0.0,0.0,0.0,0.0,0.0,0.0,0.0
1583762866476434571,207,1583762866328069911,imu,-0.0177612435073,-0.00878906901926,0.711507631216,0.702678369328,0.0,0.0,0.0,0.0,0.0,0.0,0.0,0.0,0.0,0.0,0.0,0.0,0.0,0.0,0.0,0.0,0.0,0.0,0.0,0.0,0.0,0.0,0.0234375074506,-0.0273437593132,0.0,0.0,0.0,0.0,0.0,0.0,0.0,0.0,0.0
1583762866576760720,208,1583762866428069911,imu,-0.017700208351,-0.00891113933176,0.711515418904,0.702670483699,0.0,0.0,0.0,0.0,0.0,0.0,0.0,0.0,0.0,0.0,0.0,0.0,0.0,0.0,0.0,0.0,0.0,0.0,0.0,0.0,0.0,0.0,-0.0156250055879,0.0117187537253,0.0,0.0,0.0,0.0,0.0,0.0,0.0,0.0,0.0
1583762866676196127,209,1583762866527069911,imu,-0.017700208351,-0.00903320964426,0.71151953052,0.702666320304,0.0,0.0,0.0,0.0,0.0,0.0,0.0,0.0,0.0,0.0,0.0,0.0,0.0,0.0,0.0,0.0,0.0,0.0,0.0,0.0,0.0,0.0,-0.0234375074506,-0.0195312574506,0.0,0.0,0.0,0.0,0.0,0.0,0.0,0.0,0.0
1583762866776134656,210,1583762866627069911,imu,-0.0177612435073,-0.00915527995676,0.711519480612,0.70266637084,0.0,0.0,0.0,0.0,0.0,0.0,0.0,0.0,0.0,0.0,0.0,0.0,0.0,0.0,0.0,0.0,0.0,0.0,0.0,0.0,0.0,-0.00781250279397,-0.00781250279397,0.0195312574506,0.0,0.0,0.0,0.0,0.0,0.0,0.0,0.0,0.0
1583762866876405425,211,1583762866727069911,imu,-0.0178222786635,-0.00933838542551,0.711521681298,0.70266414242,0.0,0.0,0.0,0.0,0.0,0.0,0.0,0.0,0.0,0.0,0.0,0.0,0.0,0.0,0.0,0.0,0.0,0.0,0.0,0.0,0.0,0.0351562611759,-0.00781250279397,0.0117187537253,0.0,0.0,0.0,0.0,0.0,0.0,0.0,0.0,0.0
1583762866976214997,212,1583762866832811967,imu,-0.0178222786635,-0.00952149089426,0.71152790659,0.702657838599,0.0,0.0,0.0,0.0,0.0,0.0,0.0,0.0,0.0,0.0,0.0,0.0,0.0,0.0,0.0,0.0,0.0,0.0,0.0,0.0,0.0,0.0273437593132,-0.00781250279397,-0.0273437593132,0.0,0.0,0.0,0.0,0.0,0.0,0.0,0.0,0.0
1583762867076275259,213,1583762866932811967,imu,-0.0178222786635,-0.00964356120676,0.711531966482,0.702653727432,0.0,0.0,0.0,0.0,0.0,0.0,0.0,0.0,0.0,0.0,0.0,0.0,0.0,0.0,0.0,0.0,0.0,0.0,0.0,0.0,0.0,0.0195312574506,0.0312500111759,0.0117187537253,0.0,0.0,0.0,0.0,0.0,0.0,0.0,0.0,0.0
1583762867176263424,214,1583762867032811967,imu,-0.0177612435073,-0.00976563245058,0.711540143899,0.702645446594,0.0,0.0,0.0,0.0,0.0,0.0,0.0,0.0,0.0,0.0,0.0,0.0,0.0,0.0,0.0,0.0,0.0,0.0,0.0,0.0,0.0,0.0195312574506,-0.00781250279397,0.0117187537253,0.0,0.0,0.0,0.0,0.0,0.0,0.0,0.0,0.0
1583762867276298750,215,1583762867131811967,imu,-0.017700208351,-0.00994873791933,0.711550543697,0.702634914991,0.0,0.0,0.0,0.0,0.0,0.0,0.0,0.0,0.0,0.0,0.0,0.0,0.0,0.0,0.0,0.0,0.0,0.0,0.0,0.0,0.0,0.0117187537253,-0.0156250055879,-0.0273437593132,0.0,0.0,0.0,0.0,0.0,0.0,0.0,0.0,0.0
1583762867376672869,216,1583762867233811967,imu,-0.0176391731948,-0.0100708082318,0.711558827326,0.702626526153,0.0,0.0,0.0,0.0,0.0,0.0,0.0,0.0,0.0,0.0,0.0,0.0,0.0,0.0,0.0,0.0,0.0,0.0,0.0,0.0,0.0,0.0117187537253,-0.00781250279397,0.0117187537253,0.0,0.0,0.0,0.0,0.0,0.0,0.0,0.0,0.0
1583762867476299572,217,1583762867332811967,imu,-0.0176391731948,-0.0102539137006,0.711565391129,0.702619878845,0.0,0.0,0.0,0.0,0.0,0.0,0.0,0.0,0.0,0.0,0.0,0.0,0.0,0.0,0.0,0.0,0.0,0.0,0.0,0.0,0.0,0.0117187537253,0.0312500111759,-0.0273437593132,0.0,0.0,0.0,0.0,0.0,0.0,0.0,0.0,0.0
1583762867576477634,218,1583762867373811967,imu,-0.0176391731948,-0.0102539137006,0.711565391129,0.702619878845,0.0,0.0,0.0,0.0,0.0,0.0,0.0,0.0,0.0,0.0,0.0,0.0,0.0,0.0,0.0,0.0,0.0,0.0,0.0,0.0,0.0,-0.0312500111759,0.0234375074506,0.0195312574506,0.0,0.0,0.0,0.0,0.0,0.0,0.0,0.0,0.0
1583762867676400156,219,1583762867472811967,imu,-0.0175781380385,-0.0103759840131,0.711573938549,0.702611222496,0.0,0.0,0.0,0.0,0.0,0.0,0.0,0.0,0.0,0.0,0.0,0.0,0.0,0.0,0.0,0.0,0.0,0.0,0.0,0.0,0.0,-0.0234375074506,-0.0234375074506,0.0117187537253,0.0,0.0,0.0,0.0,0.0,0.0,0.0,0.0,0.0
1583762867776209699,220,1583762867632811967,imu,-0.0175171028823,-0.0104980543256,0.711582381699,0.702602671541,0.0,0.0,0.0,0.0,0.0,0.0,0.0,0.0,0.0,0.0,0.0,0.0,0.0,0.0,0.0,0.0,0.0,0.0,0.0,0.0,0.0,-0.0156250055879,-0.0156250055879,0.0117187537253,0.0,0.0,0.0,0.0,0.0,0.0,0.0,0.0,0.0
1583762867876330417,221,1583762867732811967,imu,-0.017456067726,-0.0104980543256,0.711586219542,0.702598784626,0.0,0.0,0.0,0.0,0.0,0.0,0.0,0.0,0.0,0.0,0.0,0.0,0.0,0.0,0.0,0.0,0.0,0.0,0.0,0.0,0.0,-0.0156250055879,0.0312500111759,0.00390625139698,0.0,0.0,0.0,0.0,0.0,0.0,0.0,0.0,0.0
1583762867976208958,222,1583762867832811967,imu,-0.0175171028823,-0.0104980543256,0.711582381699,0.702602671541,0.0,0.0,0.0,0.0,0.0,0.0,0.0,0.0,0.0,0.0,0.0,0.0,0.0,0.0,0.0,0.0,0.0,0.0,0.0,0.0,0.0,0.0273437593132,-0.0156250055879,-0.0273437593132,0.0,0.0,0.0,0.0,0.0,0.0,0.0,0.0,0.0
1583762868076256311,223,1583762867932811967,imu,-0.0175171028823,-0.0106201246381,0.711586891205,0.70259810437,0.0,0.0,0.0,0.0,0.0,0.0,0.0,0.0,0.0,0.0,0.0,0.0,0.0,0.0,0.0,0.0,0.0,0.0,0.0,0.0,0.0,0.0195312574506,-0.00781250279397,0.0117187537253,0.0,0.0,0.0,0.0,0.0,0.0,0.0,0.0,0.0
1583762868176156705,224,1583762868033811967,imu,-0.0175171028823,-0.0106201246381,0.711586891205,0.70259810437,0.0,0.0,0.0,0.0,0.0,0.0,0.0,0.0,0.0,0.0,0.0,0.0,0.0,0.0,0.0,0.0,0.0,0.0,0.0,0.0,0.0,0.0117187537253,-0.00781250279397,0.0117187537253,0.0,0.0,0.0,0.0,0.0,0.0,0.0,0.0,0.0
1583762868276531377,225,1583762868133811967,imu,-0.0175781380385,-0.0107421949506,0.711587739118,0.702597245608,0.0,0.0,0.0,0.0,0.0,0.0,0.0,0.0,0.0,0.0,0.0,0.0,0.0,0.0,0.0,0.0,0.0,0.0,0.0,0.0,0.0,-0.0234375074506,-0.00781250279397,-0.0273437593132,0.0,0.0,0.0,0.0,0.0,0.0,0.0,0.0,0.0
1583762868376403803,226,1583762868232811967,imu,-0.0175781380385,-0.0108642652631,0.711592493034,0.702592430828,0.0,0.0,0.0,0.0,0.0,0.0,0.0,0.0,0.0,0.0,0.0,0.0,0.0,0.0,0.0,0.0,0.0,0.0,0.0,0.0,0.0,0.00390625139698,-0.00781250279397,0.0117187537253,0.0,0.0,0.0,0.0,0.0,0.0,0.0,0.0,0.0
1583762868476528752,227,1583762868333811967,imu,-0.0175781380385,-0.0109253004193,0.711594757353,0.702590137497,0.0,0.0,0.0,0.0,0.0,0.0,0.0,0.0,0.0,0.0,0.0,0.0,0.0,0.0,0.0,0.0,0.0,0.0,0.0,0.0,0.0,0.00390625139698,-0.00781250279397,-0.0273437593132,0.0,0.0,0.0,0.0,0.0,0.0,0.0,0.0,0.0
1583762868576239914,228,1583762868432811967,imu,-0.0175171028823,-0.0110473707318,0.711603446976,0.702581336396,0.0,0.0,0.0,0.0,0.0,0.0,0.0,0.0,0.0,0.0,0.0,0.0,0.0,0.0,0.0,0.0,0.0,0.0,0.0,0.0,0.0,-0.0390625149012,-0.00781250279397,0.0117187537253,0.0,0.0,0.0,0.0,0.0,0.0,0.0,0.0,0.0
1583762868676835405,229,1583762868532811967,imu,-0.0175781380385,-0.0110473707318,0.711599593234,0.702585239604,0.0,0.0,0.0,0.0,0.0,0.0,0.0,0.0,0.0,0.0,0.0,0.0,0.0,0.0,0.0,0.0,0.0,0.0,0.0,0.0,0.0,-0.0234375074506,0.0312500111759,0.0117187537253,0.0,0.0,0.0,0.0,0.0,0.0,0.0,0.0,0.0
1583762868776562980,230,1583762868632811967,imu,-0.0175781380385,-0.0110473707318,0.711599593234,0.702585239604,0.0,0.0,0.0,0.0,0.0,0.0,0.0,0.0,0.0,0.0,0.0,0.0,0.0,0.0,0.0,0.0,0.0,0.0,0.0,0.0,0.0,0.0195312574506,0.0312500111759,-0.0273437593132,0.0,0.0,0.0,0.0,0.0,0.0,0.0,0.0,0.0
1583762868876631754,231,1583762868732811967,imu,-0.0175171028823,-0.0110473707318,0.711603446976,0.702581336396,0.0,0.0,0.0,0.0,0.0,0.0,0.0,0.0,0.0,0.0,0.0,0.0,0.0,0.0,0.0,0.0,0.0,0.0,0.0,0.0,0.0,0.00390625139698,-0.0234375074506,0.0117187537253,0.0,0.0,0.0,0.0,0.0,0.0,0.0,0.0,0.0
1583762868976076661,232,1583762868832811967,imu,-0.017456067726,-0.0111084068194,0.71160972524,0.702574977454,0.0,0.0,0.0,0.0,0.0,0.0,0.0,0.0,0.0,0.0,0.0,0.0,0.0,0.0,0.0,0.0,0.0,0.0,0.0,0.0,0.0,-0.0312500111759,0.0156250055879,-0.0273437593132,0.0,0.0,0.0,0.0,0.0,0.0,0.0,0.0,0.0
1583762869076510660,233,1583762868932811967,imu,-0.0173339974135,-0.0111084068194,0.711617365719,0.702567238638,0.0,0.0,0.0,0.0,0.0,0.0,0.0,0.0,0.0,0.0,0.0,0.0,0.0,0.0,0.0,0.0,0.0,0.0,0.0,0.0,0.0,0.00390625139698,0.00781250279397,0.0117187537253,0.0,0.0,0.0,0.0,0.0,0.0,0.0,0.0,0.0
1583762869176470835,234,1583762869032811967,imu,-0.0172729622573,-0.0111084068194,0.711621165888,0.702563389496,0.0,0.0,0.0,0.0,0.0,0.0,0.0,0.0,0.0,0.0,0.0,0.0,0.0,0.0,0.0,0.0,0.0,0.0,0.0,0.0,0.0,-0.0312500111759,-0.0312500111759,0.0117187537253,0.0,0.0,0.0,0.0,0.0,0.0,0.0,0.0,0.0
1583762869276523200,235,1583762869131811967,imu,-0.017211927101,-0.0111084068194,0.711624952677,0.702559553866,0.0,0.0,0.0,0.0,0.0,0.0,0.0,0.0,0.0,0.0,0.0,0.0,0.0,0.0,0.0,0.0,0.0,0.0,0.0,0.0,0.0,-0.0312500111759,-0.0312500111759,0.0117187537253,0.0,0.0,0.0,0.0,0.0,0.0,0.0,0.0,0.0
1583762869376409922,236,1583762869233811967,imu,-0.017211927101,-0.0111084068194,0.711624952677,0.702559553866,0.0,0.0,0.0,0.0,0.0,0.0,0.0,0.0,0.0,0.0,0.0,0.0,0.0,0.0,0.0,0.0,0.0,0.0,0.0,0.0,0.0,0.00390625139698,-0.0234375074506,0.00390625139698,0.0,0.0,0.0,0.0,0.0,0.0,0.0,0.0,0.0
1583762869476197852,237,1583762869336267051,imu,-0.0172729622573,-0.0111694419757,0.711623616955,0.70256090682,0.0,0.0,0.0,0.0,0.0,0.0,0.0,0.0,0.0,0.0,0.0,0.0,0.0,0.0,0.0,0.0,0.0,0.0,0.0,0.0,0.0,0.00390625139698,0.0234375074506,-0.0273437593132,0.0,0.0,0.0,0.0,0.0,0.0,0.0,0.0,0.0
1583762869576183859,238,1583762869435267051,imu,-0.017211927101,-0.0111694419757,0.711627403695,0.702557071212,0.0,0.0,0.0,0.0,0.0,0.0,0.0,0.0,0.0,0.0,0.0,0.0,0.0,0.0,0.0,0.0,0.0,0.0,0.0,0.0,0.0,-0.0312500111759,0.0156250055879,-0.0273437593132,0.0,0.0,0.0,0.0,0.0,0.0,0.0,0.0,0.0
1583762869676057304,239,1583762869536267051,imu,-0.017211927101,-0.0111694419757,0.711627403695,0.702557071212,0.0,0.0,0.0,0.0,0.0,0.0,0.0,0.0,0.0,0.0,0.0,0.0,0.0,0.0,0.0,0.0,0.0,0.0,0.0,0.0,0.0,0.00390625139698,-0.0234375074506,0.0195312574506,0.0,0.0,0.0,0.0,0.0,0.0,0.0,0.0,0.0
1583762869776272290,240,1583762869635267051,imu,-0.017211927101,-0.0112304771319,0.711629868064,0.702554575019,0.0,0.0,0.0,0.0,0.0,0.0,0.0,0.0,0.0,0.0,0.0,0.0,0.0,0.0,0.0,0.0,0.0,0.0,0.0,0.0,0.0,0.00390625139698,-0.0156250055879,-0.0195312574506,0.0,0.0,0.0,0.0,0.0,0.0,0.0,0.0,0.0
1583762869876461124,241,1583762869736267051,imu,-0.017211927101,-0.0112915122882,0.711632345783,0.702552065284,0.0,0.0,0.0,0.0,0.0,0.0,0.0,0.0,0.0,0.0,0.0,0.0,0.0,0.0,0.0,0.0,0.0,0.0,0.0,0.0,0.0,-0.00390625139698,-0.0156250055879,0.0195312574506,0.0,0.0,0.0,0.0,0.0,0.0,0.0,0.0,0.0
1583762869976500014,242,1583762869836267051,imu,-0.0172729622573,-0.0113525474444,0.711631050257,0.702553377552,0.0,0.0,0.0,0.0,0.0,0.0,0.0,0.0,0.0,0.0,0.0,0.0,0.0,0.0,0.0,0.0,0.0,0.0,0.0,0.0,0.0,-0.00390625139698,-0.00781250279397,0.0195312574506,0.0,0.0,0.0,0.0,0.0,0.0,0.0,0.0,0.0
1583762870076341016,243,1583762869935267051,imu,-0.0173339974135,-0.0114135826007,0.711629754798,0.702554689747,0.0,0.0,0.0,0.0,0.0,0.0,0.0,0.0,0.0,0.0,0.0,0.0,0.0,0.0,0.0,0.0,0.0,0.0,0.0,0.0,0.0,-0.0390625149012,0.0312500111759,-0.0195312574506,0.0,0.0,0.0,0.0,0.0,0.0,0.0,0.0,0.0
1583762870176647492,244,1583762870035267051,imu,-0.0173339974135,-0.0114135826007,0.711629635681,0.702554810403,0.0,0.0,0.0,0.0,0.0,0.0,0.0,0.0,0.0,0.0,0.0,0.0,0.0,0.0,0.0,0.0,0.0,0.0,0.0,0.0,0.0,0.00390625139698,-0.00781250279397,0.0195312574506,0.0,0.0,0.0,0.0,0.0,0.0,0.0,0.0,0.0
1583762870276188828,245,1583762870136267051,imu,-0.0173339974135,-0.0113525474444,0.711627130191,0.702557348247,0.0,0.0,0.0,0.0,0.0,0.0,0.0,0.0,0.0,0.0,0.0,0.0,0.0,0.0,0.0,0.0,0.0,0.0,0.0,0.0,0.0,-0.0234375074506,-0.00781250279397,0.0117187537253,0.0,0.0,0.0,0.0,0.0,0.0,0.0,0.0,0.0
1583762870376241791,246,1583762870236267051,imu,-0.0173950325698,-0.0112915122882,0.711620945717,0.702563612506,0.0,0.0,0.0,0.0,0.0,0.0,0.0,0.0,0.0,0.0,0.0,0.0,0.0,0.0,0.0,0.0,0.0,0.0,0.0,0.0,0.0,0.0195312574506,-0.0156250055879,0.0117187537253,0.0,0.0,0.0,0.0,0.0,0.0,0.0,0.0,0.0
1583762870476224924,247,1583762870335267051,imu,-0.0173950325698,-0.0112304771319,0.711618467851,0.702566122307,0.0,0.0,0.0,0.0,0.0,0.0,0.0,0.0,0.0,0.0,0.0,0.0,0.0,0.0,0.0,0.0,0.0,0.0,0.0,0.0,0.0,0.0195312574506,0.0312500111759,0.0117187537253,0.0,0.0,0.0,0.0,0.0,0.0,0.0,0.0,0.0
1583762870577361341,248,1583762870437267051,imu,-0.0173950325698,-0.0112304771319,0.711618467851,0.702566122307,0.0,0.0,0.0,0.0,0.0,0.0,0.0,0.0,0.0,0.0,0.0,0.0,0.0,0.0,0.0,0.0,0.0,0.0,0.0,0.0,0.0,-0.0156250055879,0.0234375074506,-0.0273437593132,0.0,0.0,0.0,0.0,0.0,0.0,0.0,0.0,0.0
1583762870676271584,249,1583762870536267051,imu,-0.0173339974135,-0.0111694419757,0.711619939751,0.702564631439,0.0,0.0,0.0,0.0,0.0,0.0,0.0,0.0,0.0,0.0,0.0,0.0,0.0,0.0,0.0,0.0,0.0,0.0,0.0,0.0,0.0,0.0195312574506,-0.0156250055879,0.0117187537253,0.0,0.0,0.0,0.0,0.0,0.0,0.0,0.0,0.0
1583762870776008435,250,1583762870636267051,imu,-0.0173950325698,-0.0111694419757,0.711616127733,0.702568492569,0.0,0.0,0.0,0.0,0.0,0.0,0.0,0.0,0.0,0.0,0.0,0.0,0.0,0.0,0.0,0.0,0.0,0.0,0.0,0.0,0.0,0.0117187537253,-0.00781250279397,0.0117187537253,0.0,0.0,0.0,0.0,0.0,0.0,0.0,0.0,0.0
1583762870876093293,251,1583762870736267051,imu,-0.0173339974135,-0.0111694419757,0.711619816835,0.702564755939,0.0,0.0,0.0,0.0,0.0,0.0,0.0,0.0,0.0,0.0,0.0,0.0,0.0,0.0,0.0,0.0,0.0,0.0,0.0,0.0,0.0,0.0117187537253,0.0312500111759,0.0117187537253,0.0,0.0,0.0,0.0,0.0,0.0,0.0,0.0,0.0
1583762870977245841,252,1583762870836267051,imu,-0.0172729622573,-0.0111694419757,0.711623738395,0.702560783814,0.0,0.0,0.0,0.0,0.0,0.0,0.0,0.0,0.0,0.0,0.0,0.0,0.0,0.0,0.0,0.0,0.0,0.0,0.0,0.0,0.0,-0.0312500111759,0.0234375074506,0.00390625139698,0.0,0.0,0.0,0.0,0.0,0.0,0.0,0.0,0.0
1583762871076307971,253,1583762870935267051,imu,-0.0172729622573,-0.0111694419757,0.711623616955,0.70256090682,0.0,0.0,0.0,0.0,0.0,0.0,0.0,0.0,0.0,0.0,0.0,0.0,0.0,0.0,0.0,0.0,0.0,0.0,0.0,0.0,0.0,0.00390625139698,-0.0234375074506,-0.0273437593132,0.0,0.0,0.0,0.0,0.0,0.0,0.0,0.0,0.0
1583762871176106226,254,1583762870975267051,imu,-0.0172729622573,-0.0111694419757,0.711623616955,0.70256090682,0.0,0.0,0.0,0.0,0.0,0.0,0.0,0.0,0.0,0.0,0.0,0.0,0.0,0.0,0.0,0.0,0.0,0.0,0.0,0.0,0.0,0.0117187537253,-0.0156250055879,0.0117187537253,0.0,0.0,0.0,0.0,0.0,0.0,0.0,0.0,0.0
1583762871276717822,255,1583762871076267051,imu,-0.0173339974135,-0.0111694419757,0.711619816835,0.702564755939,0.0,0.0,0.0,0.0,0.0,0.0,0.0,0.0,0.0,0.0,0.0,0.0,0.0,0.0,0.0,0.0,0.0,0.0,0.0,0.0,0.0,0.0117187537253,-0.00781250279397,0.0117187537253,0.0,0.0,0.0,0.0,0.0,0.0,0.0,0.0,0.0
1583762871376178079,256,1583762871175267051,imu,-0.0173339974135,-0.0111694419757,0.711619939751,0.702564631439,0.0,0.0,0.0,0.0,0.0,0.0,0.0,0.0,0.0,0.0,0.0,0.0,0.0,0.0,0.0,0.0,0.0,0.0,0.0,0.0,0.0,-0.0156250055879,0.0312500111759,0.0117187537253,0.0,0.0,0.0,0.0,0.0,0.0,0.0,0.0,0.0
1583762871476540576,257,1583762871336267051,imu,-0.0172729622573,-0.0110473707318,0.711618728135,0.702565858669,0.0,0.0,0.0,0.0,0.0,0.0,0.0,0.0,0.0,0.0,0.0,0.0,0.0,0.0,0.0,0.0,0.0,0.0,0.0,0.0,0.0,0.0195312574506,-0.0234375074506,0.00390625139698,0.0,0.0,0.0,0.0,0.0,0.0,0.0,0.0,0.0
1583762871576361652,258,1583762871435267051,imu,-0.0173339974135,-0.0111084068194,0.711617241777,0.702567364177,0.0,0.0,0.0,0.0,0.0,0.0,0.0,0.0,0.0,0.0,0.0,0.0,0.0,0.0,0.0,0.0,0.0,0.0,0.0,0.0,0.0,0.0117187537253,-0.0156250055879,-0.0273437593132,0.0,0.0,0.0,0.0,0.0,0.0,0.0,0.0,0.0
1583762871676521538,259,1583762871536267051,imu,-0.0172729622573,-0.0110473707318,0.711618728135,0.702565858669,0.0,0.0,0.0,0.0,0.0,0.0,0.0,0.0,0.0,0.0,0.0,0.0,0.0,0.0,0.0,0.0,0.0,0.0,0.0,0.0,0.0,-0.0234375074506,-0.0156250055879,0.0117187537253,0.0,0.0,0.0,0.0,0.0,0.0,0.0,0.0,0.0
1583762871776237695,260,1583762871575267051,imu,-0.0172729622573,-0.0110473707318,0.711618728135,0.702565858669,0.0,0.0,0.0,0.0,0.0,0.0,0.0,0.0,0.0,0.0,0.0,0.0,0.0,0.0,0.0,0.0,0.0,0.0,0.0,0.0,0.0,-0.0156250055879,-0.0156250055879,-0.0273437593132,0.0,0.0,0.0,0.0,0.0,0.0,0.0,0.0,0.0
1583762871876287328,261,1583762871676267051,imu,-0.0173339974135,-0.0109863355756,0.711612503504,0.702572163452,0.0,0.0,0.0,0.0,0.0,0.0,0.0,0.0,0.0,0.0,0.0,0.0,0.0,0.0,0.0,0.0,0.0,0.0,0.0,0.0,0.0,0.0195312574506,0.0234375074506,-0.0195312574506,0.0,0.0,0.0,0.0,0.0,0.0,0.0,0.0,0.0
1583762871976263839,262,1583762871775267051,imu,-0.0173339974135,-0.0109253004193,0.711610092443,0.702574605529,0.0,0.0,0.0,0.0,0.0,0.0,0.0,0.0,0.0,0.0,0.0,0.0,0.0,0.0,0.0,0.0,0.0,0.0,0.0,0.0,0.0,0.0195312574506,0.0156250055879,0.0195312574506,0.0,0.0,0.0,0.0,0.0,0.0,0.0,0.0,0.0
1583762872076312077,263,1583762871883321031,imu,-0.0172729622573,-0.0108642652631,0.711611495102,0.702573184827,0.0,0.0,0.0,0.0,0.0,0.0,0.0,0.0,0.0,0.0,0.0,0.0,0.0,0.0,0.0,0.0,0.0,0.0,0.0,0.0,0.0,0.0117187537253,0.0156250055879,0.0117187537253,0.0,0.0,0.0,0.0,0.0,0.0,0.0,0.0,0.0
1583762872176371765,264,1583762872042321031,imu,-0.0171508919448,-0.0109253004193,0.71162145325,0.702563098429,0.0,0.0,0.0,0.0,0.0,0.0,0.0,0.0,0.0,0.0,0.0,0.0,0.0,0.0,0.0,0.0,0.0,0.0,0.0,0.0,0.0,0.00390625139698,-0.0312500111759,0.0117187537253,0.0,0.0,0.0,0.0,0.0,0.0,0.0,0.0,0.0
1583762872276228252,265,1583762872082321031,imu,-0.0171508919448,-0.0109253004193,0.71162145325,0.702563098429,0.0,0.0,0.0,0.0,0.0,0.0,0.0,0.0,0.0,0.0,0.0,0.0,0.0,0.0,0.0,0.0,0.0,0.0,0.0,0.0,0.0,-0.0234375074506,-0.0234375074506,0.0117187537253,0.0,0.0,0.0,0.0,0.0,0.0,0.0,0.0,0.0
1583762872376109846,266,1583762872182321031,imu,-0.0171508919448,-0.0109863355756,0.711623742743,0.702560779409,0.0,0.0,0.0,0.0,0.0,0.0,0.0,0.0,0.0,0.0,0.0,0.0,0.0,0.0,0.0,0.0,0.0,0.0,0.0,0.0,0.0,-0.0234375074506,-0.0234375074506,-0.0273437593132,0.0,0.0,0.0,0.0,0.0,0.0,0.0,0.0,0.0
1583762872476265323,267,1583762872282321031,imu,-0.0172729622573,-0.0109253004193,0.711613892761,0.702570756316,0.0,0.0,0.0,0.0,0.0,0.0,0.0,0.0,0.0,0.0,0.0,0.0,0.0,0.0,0.0,0.0,0.0,0.0,0.0,0.0,0.0,0.0195312574506,-0.0156250055879,0.0117187537253,0.0,0.0,0.0,0.0,0.0,0.0,0.0,0.0,0.0
1583762872576122114,268,1583762872442321031,imu,-0.0173339974135,-0.0108642652631,0.711607694734,0.702577034064,0.0,0.0,0.0,0.0,0.0,0.0,0.0,0.0,0.0,0.0,0.0,0.0,0.0,0.0,0.0,0.0,0.0,0.0,0.0,0.0,0.0,0.0195312574506,0.0312500111759,-0.0273437593132,0.0,0.0,0.0,0.0,0.0,0.0,0.0,0.0,0.0
1583762872676259199,269,1583762872482321031,imu,-0.0173339974135,-0.0108642652631,0.711607694734,0.702577034064,0.0,0.0,0.0,0.0,0.0,0.0,0.0,0.0,0.0,0.0,0.0,0.0,0.0,0.0,0.0,0.0,0.0,0.0,0.0,0.0,0.0,0.0117187537253,-0.0234375074506,0.0117187537253,0.0,0.0,0.0,0.0,0.0,0.0,0.0,0.0,0.0
1583762872776133273,270,1583762872641321031,imu,-0.0173950325698,-0.0108642652631,0.711603880984,0.702580896814,0.0,0.0,0.0,0.0,0.0,0.0,0.0,0.0,0.0,0.0,0.0,0.0,0.0,0.0,0.0,0.0,0.0,0.0,0.0,0.0,0.0,0.0117187537253,-0.0234375074506,0.0195312574506,0.0,0.0,0.0,0.0,0.0,0.0,0.0,0.0,0.0
1583762872876130139,271,1583762872681321031,imu,-0.0173950325698,-0.0108642652631,0.711603880984,0.702580896814,0.0,0.0,0.0,0.0,0.0,0.0,0.0,0.0,0.0,0.0,0.0,0.0,0.0,0.0,0.0,0.0,0.0,0.0,0.0,0.0,0.0,0.0117187537253,-0.0156250055879,-0.0195312574506,0.0,0.0,0.0,0.0,0.0,0.0,0.0,0.0,0.0
1583762872976760972,272,1583762872842321031,imu,-0.017456067726,-0.0109253004193,0.711602321914,0.702582475903,0.0,0.0,0.0,0.0,0.0,0.0,0.0,0.0,0.0,0.0,0.0,0.0,0.0,0.0,0.0,0.0,0.0,0.0,0.0,0.0,0.0,0.00390625139698,0.0234375074506,0.0195312574506,0.0,0.0,0.0,0.0,0.0,0.0,0.0,0.0,0.0
1583762873076868835,273,1583762872882321031,imu,-0.017456067726,-0.0109253004193,0.711602321914,0.702582475903,0.0,0.0,0.0,0.0,0.0,0.0,0.0,0.0,0.0,0.0,0.0,0.0,0.0,0.0,0.0,0.0,0.0,0.0,0.0,0.0,0.0,0.00390625139698,0.0156250055879,-0.0195312574506,0.0,0.0,0.0,0.0,0.0,0.0,0.0,0.0,0.0
1583762873176326983,274,1583762873042321031,imu,-0.0173339974135,-0.0110473707318,0.711614803025,0.702569834334,0.0,0.0,0.0,0.0,0.0,0.0,0.0,0.0,0.0,0.0,0.0,0.0,0.0,0.0,0.0,0.0,0.0,0.0,0.0,0.0,0.0,0.00390625139698,-0.0312500111759,0.0195312574506,0.0,0.0,0.0,0.0,0.0,0.0,0.0,0.0,0.0
1583762873277031051,275,1583762873082321031,imu,-0.0173339974135,-0.0110473707318,0.711614803025,0.702569834334,0.0,0.0,0.0,0.0,0.0,0.0,0.0,0.0,0.0,0.0,0.0,0.0,0.0,0.0,0.0,0.0,0.0,0.0,0.0,0.0,0.0,-0.0312500111759,-0.0312500111759,0.0117187537253,0.0,0.0,0.0,0.0,0.0,0.0,0.0,0.0,0.0
1583762873377375897,276,1583762873242321031,imu,-0.0172729622573,-0.0109863355756,0.711616179413,0.702568440224,0.0,0.0,0.0,0.0,0.0,0.0,0.0,0.0,0.0,0.0,0.0,0.0,0.0,0.0,0.0,0.0,0.0,0.0,0.0,0.0,0.0,-0.0234375074506,-0.0234375074506,0.0117187537253,0.0,0.0,0.0,0.0,0.0,0.0,0.0,0.0,0.0
1583762873476401736,277,1583762873281321031,imu,-0.0172729622573,-0.0109863355756,0.711616179413,0.702568440224,0.0,0.0,0.0,0.0,0.0,0.0,0.0,0.0,0.0,0.0,0.0,0.0,0.0,0.0,0.0,0.0,0.0,0.0,0.0,0.0,0.0,0.0195312574506,-0.0156250055879,0.00390625139698,0.0,0.0,0.0,0.0,0.0,0.0,0.0,0.0,0.0
1583762873577176668,278,1583762873381321031,imu,-0.0173339974135,-0.0109253004193,0.711609965667,0.702574733935,0.0,0.0,0.0,0.0,0.0,0.0,0.0,0.0,0.0,0.0,0.0,0.0,0.0,0.0,0.0,0.0,0.0,0.0,0.0,0.0,0.0,0.0195312574506,-0.00781250279397,0.00390625139698,0.0,0.0,0.0,0.0,0.0,0.0,0.0,0.0,0.0
1583762873676462473,279,1583762873541321031,imu,-0.0173950325698,-0.0109863355756,0.711608562535,0.702576155109,0.0,0.0,0.0,0.0,0.0,0.0,0.0,0.0,0.0,0.0,0.0,0.0,0.0,0.0,0.0,0.0,0.0,0.0,0.0,0.0,0.0,0.0117187537253,-0.00781250279397,-0.0351562611759,0.0,0.0,0.0,0.0,0.0,0.0,0.0,0.0,0.0
1583762873776084982,280,1583762873581321031,imu,-0.0173950325698,-0.0109863355756,0.711608562535,0.702576155109,0.0,0.0,0.0,0.0,0.0,0.0,0.0,0.0,0.0,0.0,0.0,0.0,0.0,0.0,0.0,0.0,0.0,0.0,0.0,0.0,0.0,0.00390625139698,-0.00781250279397,0.0117187537253,0.0,0.0,0.0,0.0,0.0,0.0,0.0,0.0,0.0
1583762873876278886,281,1583762873683321031,imu,-0.0173950325698,-0.0110473707318,0.711610987943,0.702573698511,0.0,0.0,0.0,0.0,0.0,0.0,0.0,0.0,0.0,0.0,0.0,0.0,0.0,0.0,0.0,0.0,0.0,0.0,0.0,0.0,0.0,0.00390625139698,0.0312500111759,-0.0273437593132,0.0,0.0,0.0,0.0,0.0,0.0,0.0,0.0,0.0
1583762873976434599,282,1583762873782321031,imu,-0.017456067726,-0.0111084068194,0.711609598326,0.702575105999,0.0,0.0,0.0,0.0,0.0,0.0,0.0,0.0,0.0,0.0,0.0,0.0,0.0,0.0,0.0,0.0,0.0,0.0,0.0,0.0,0.0,-0.00390625139698,0.0234375074506,0.0117187537253,0.0,0.0,0.0,0.0,0.0,0.0,0.0,0.0,0.0
1583762874076377679,283,1583762873942321031,imu,-0.0173339974135,-0.0112915122882,0.711624638055,0.702559872546,0.0,0.0,0.0,0.0,0.0,0.0,0.0,0.0,0.0,0.0,0.0,0.0,0.0,0.0,0.0,0.0,0.0,0.0,0.0,0.0,0.0,-0.00390625139698,0.0234375074506,0.0117187537253,0.0,0.0,0.0,0.0,0.0,0.0,0.0,0.0,0.0
1583762874176141990,284,1583762873982321031,imu,-0.0173339974135,-0.0112915122882,0.711624638055,0.702559872546,0.0,0.0,0.0,0.0,0.0,0.0,0.0,0.0,0.0,0.0,0.0,0.0,0.0,0.0,0.0,0.0,0.0,0.0,0.0,0.0,0.0,-0.00390625139698,-0.0234375074506,0.0117187537253,0.0,0.0,0.0,0.0,0.0,0.0,0.0,0.0,0.0
1583762874276346231,285,1583762874081321031,imu,-0.0173339974135,-0.0113525474444,0.711627130191,0.702557348247,0.0,0.0,0.0,0.0,0.0,0.0,0.0,0.0,0.0,0.0,0.0,0.0,0.0,0.0,0.0,0.0,0.0,0.0,0.0,0.0,0.0,-0.0390625149012,-0.0156250055879,0.00390625139698,0.0,0.0,0.0,0.0,0.0,0.0,0.0,0.0,0.0
1583762874376149844,286,1583762874181321031,imu,-0.0173339974135,-0.0112915122882,0.711624638055,0.702559872546,0.0,0.0,0.0,0.0,0.0,0.0,0.0,0.0,0.0,0.0,0.0,0.0,0.0,0.0,0.0,0.0,0.0,0.0,0.0,0.0,0.0,-0.0234375074506,-0.0156250055879,-0.0273437593132,0.0,0.0,0.0,0.0,0.0,0.0,0.0,0.0,0.0
1583762874476313991,287,1583762874282321031,imu,-0.0173339974135,-0.0112915122882,0.711624638055,0.702559872546,0.0,0.0,0.0,0.0,0.0,0.0,0.0,0.0,0.0,0.0,0.0,0.0,0.0,0.0,0.0,0.0,0.0,0.0,0.0,0.0,0.0,0.0117187537253,0.0312500111759,0.0117187537253,0.0,0.0,0.0,0.0,0.0,0.0,0.0,0.0,0.0
1583762874576391100,288,1583762874386533981,imu,-0.0173339974135,-0.0112915122882,0.711624516922,0.702559995243,0.0,0.0,0.0,0.0,0.0,0.0,0.0,0.0,0.0,0.0,0.0,0.0,0.0,0.0,0.0,0.0,0.0,0.0,0.0,0.0,0.0,-0.0234375074506,0.0234375074506,-0.0273437593132,0.0,0.0,0.0,0.0,0.0,0.0,0.0,0.0,0.0
1583762874676456121,289,1583762874487533981,imu,-0.0173339974135,-0.0112915122882,0.711623545309,0.702560979391,0.0,0.0,0.0,0.0,0.0,0.0,0.0,0.0,0.0,0.0,0.0,0.0,0.0,0.0,0.0,0.0,0.0,0.0,0.0,0.0,0.0,-0.0625000223517,-0.0156250055879,0.0117187537253,0.0,0.0,0.0,0.0,0.0,0.0,0.0,0.0,0.0
1583762874776329581,290,1583762874586533981,imu,-0.0173950325698,-0.0112304771319,0.711616732132,0.702567880386,0.0,0.0,0.0,0.0,0.0,0.0,0.0,0.0,0.0,0.0,0.0,0.0,0.0,0.0,0.0,0.0,0.0,0.0,0.0,0.0,0.0,0.0664062723517,0.0234375074506,0.0195312574506,0.0,0.0,0.0,0.0,0.0,0.0,0.0,0.0,0.0
1583762874876622303,291,1583762874686533981,imu,-0.0173950325698,-0.0111694419757,0.71161173022,0.702572946685,0.0,0.0,0.0,0.0,0.0,0.0,0.0,0.0,0.0,0.0,0.0,0.0,0.0,0.0,0.0,0.0,0.0,0.0,0.0,0.0,0.0,-0.125000044703,0.0546875186265,-0.0195312574506,0.0,0.0,0.0,0.0,0.0,0.0,0.0,0.0,0.0
1583762874976158079,292,1583762874786533981,imu,-0.0173339974135,-0.0109253004193,0.711593653549,0.702591255445,0.0,0.0,0.0,0.0,0.0,0.0,0.0,0.0,0.0,0.0,0.0,0.0,0.0,0.0,0.0,0.0,0.0,0.0,0.0,0.0,0.0,-0.0390625149012,-0.0390625149012,0.0195312574506,0.0,0.0,0.0,0.0,0.0,0.0,0.0,0.0,0.0
1583762875076457965,293,1583762874886533981,imu,-0.0172729622573,-0.0102539137006,0.711551177588,0.702634273056,0.0,0.0,0.0,0.0,0.0,0.0,0.0,0.0,0.0,0.0,0.0,0.0,0.0,0.0,0.0,0.0,0.0,0.0,0.0,0.0,0.0,0.121093794703,-0.359375119209,0.0195312574506,0.0,0.0,0.0,0.0,0.0,0.0,0.0,0.0,0.0
1583762875176091994,294,1583762874986533981,imu,-0.017456067726,-0.00976563245058,0.711487078473,0.702699179711,0.0,0.0,0.0,0.0,0.0,0.0,0.0,0.0,0.0,0.0,0.0,0.0,0.0,0.0,0.0,0.0,0.0,0.0,0.0,0.0,0.0,0.160156309605,0.0,0.0195312574506,0.0,0.0,0.0,0.0,0.0,0.0,0.0,0.0,0.0
1583762875276337874,295,1583762875085533981,imu,-0.017700208351,-0.00933838542551,0.711414832643,0.70277232152,0.0,0.0,0.0,0.0,0.0,0.0,0.0,0.0,0.0,0.0,0.0,0.0,0.0,0.0,0.0,0.0,0.0,0.0,0.0,0.0,0.0,-0.144531294703,-0.0312500111759,0.0195312574506,0.0,0.0,0.0,0.0,0.0,0.0,0.0,0.0,0.0
1583762875376271210,296,1583762875187533981,imu,-0.017944348976,-0.00897217448801,0.711335704551,0.70285241369,0.0,0.0,0.0,0.0,0.0,0.0,0.0,0.0,0.0,0.0,0.0,0.0,0.0,0.0,0.0,0.0,0.0,0.0,0.0,0.0,0.0,0.113281287253,-0.0156250055879,0.0117187537253,0.0,0.0,0.0,0.0,0.0,0.0,0.0,0.0,0.0
1583762875476565399,297,1583762875286533981,imu,-0.0180664192885,-0.00860596355051,0.711256340475,0.702932726606,0.0,0.0,0.0,0.0,0.0,0.0,0.0,0.0,0.0,0.0,0.0,0.0,0.0,0.0,0.0,0.0,0.0,0.0,0.0,0.0,0.0,0.0390625149012,-0.0546875186265,-0.0273437593132,0.0,0.0,0.0,0.0,0.0,0.0,0.0,0.0,0.0
1583762875576206743,298,1583762875386533981,imu,-0.0183715950698,-0.00854492839426,0.711161883623,0.703028289105,0.0,0.0,0.0,0.0,0.0,0.0,0.0,0.0,0.0,0.0,0.0,0.0,0.0,0.0,0.0,0.0,0.0,0.0,0.0,0.0,0.0,-0.0390625149012,-0.00781250279397,0.00390625139698,0.0,0.0,0.0,0.0,0.0,0.0,0.0,0.0,0.0
1583762875676250018,299,1583762875487533981,imu,-0.0185547005385,-0.00860596355051,0.711071838683,0.703119364142,0.0,0.0,0.0,0.0,0.0,0.0,0.0,0.0,0.0,0.0,0.0,0.0,0.0,0.0,0.0,0.0,0.0,0.0,0.0,0.0,0.0,-0.0312500111759,-0.00781250279397,0.00390625139698,0.0,0.0,0.0,0.0,0.0,0.0,0.0,0.0,0.0
1583762875776473087,300,1583762875586533981,imu,-0.0186157356948,-0.00854492839426,0.710977712986,0.703214541685,0.0,0.0,0.0,0.0,0.0,0.0,0.0,0.0,0.0,0.0,0.0,0.0,0.0,0.0,0.0,0.0,0.0,0.0,0.0,0.0,0.0,-0.0312500111759,-0.00781250279397,0.00390625139698,0.0,0.0,0.0,0.0,0.0,0.0,0.0,0.0,0.0
1583762875876557313,301,1583762875687533981,imu,-0.0187378060073,-0.00842285715044,0.710854211248,0.7033393849,0.0,0.0,0.0,0.0,0.0,0.0,0.0,0.0,0.0,0.0,0.0,0.0,0.0,0.0,0.0,0.0,0.0,0.0,0.0,0.0,0.0,-0.0156250055879,-0.00781250279397,-0.0351562611759,0.0,0.0,0.0,0.0,0.0,0.0,0.0,0.0,0.0
1583762875976172422,302,1583762875786533981,imu,-0.018920911476,-0.00817871652544,0.710693100776,0.703502179463,0.0,0.0,0.0,0.0,0.0,0.0,0.0,0.0,0.0,0.0,0.0,0.0,0.0,0.0,0.0,0.0,0.0,0.0,0.0,0.0,0.0,-0.0156250055879,0.0312500111759,0.0117187537253,0.0,0.0,0.0,0.0,0.0,0.0,0.0,0.0,0.0
1583762876076201711,303,1583762875886533981,imu,-0.0189819466323,-0.00805664621294,0.710533192427,0.703663685619,0.0,0.0,0.0,0.0,0.0,0.0,0.0,0.0,0.0,0.0,0.0,0.0,0.0,0.0,0.0,0.0,0.0,0.0,0.0,0.0,0.0,0.0195312574506,0.0312500111759,0.0117187537253,0.0,0.0,0.0,0.0,0.0,0.0,0.0,0.0,0.0
1583762876176191102,304,1583762875986533981,imu,-0.0190429817885,-0.00854492839426,0.710395679172,0.703802514214,0.0,0.0,0.0,0.0,0.0,0.0,0.0,0.0,0.0,0.0,0.0,0.0,0.0,0.0,0.0,0.0,0.0,0.0,0.0,0.0,0.0,-0.0937500298023,0.0703125223517,-0.0976562872529,0.0,0.0,0.0,0.0,0.0,0.0,0.0,0.0,0.0
1583762876276315711,305,1583762876086533981,imu,-0.0192260872573,-0.00817871652544,0.710123261128,0.704077377854,0.0,0.0,0.0,0.0,0.0,0.0,0.0,0.0,0.0,0.0,0.0,0.0,0.0,0.0,0.0,0.0,0.0,0.0,0.0,0.0,0.0,-0.0234375074506,-0.0546875186265,0.0585937723517,0.0,0.0,0.0,0.0,0.0,0.0,0.0,0.0,0.0
1583762876376376570,306,1583762876186533981,imu,-0.0193481575698,-0.00793457590044,0.709808582199,0.704394617126,0.0,0.0,0.0,0.0,0.0,0.0,0.0,0.0,0.0,0.0,0.0,0.0,0.0,0.0,0.0,0.0,0.0,0.0,0.0,0.0,0.0,-0.0156250055879,-0.00781250279397,0.00390625139698,0.0,0.0,0.0,0.0,0.0,0.0,0.0,0.0,0.0
1583762876476420050,307,1583762876286533981,imu,-0.0196533352137,-0.00775147043169,0.709384360055,0.704821842531,0.0,0.0,0.0,0.0,0.0,0.0,0.0,0.0,0.0,0.0,0.0,0.0,0.0,0.0,0.0,0.0,0.0,0.0,0.0,0.0,0.0,-0.0234375074506,0.0390625149012,-0.00390625139698,0.0,0.0,0.0,0.0,0.0,0.0,0.0,0.0,0.0
1583762876576220417,308,1583762876386533981,imu,-0.0198364406824,-0.00762940011919,0.708887211148,0.705321856935,0.0,0.0,0.0,0.0,0.0,0.0,0.0,0.0,0.0,0.0,0.0,0.0,0.0,0.0,0.0,0.0,0.0,0.0,0.0,0.0,0.0,-0.0156250055879,0.0,-0.00390625139698,0.0,0.0,0.0,0.0,0.0,0.0,0.0,0.0,0.0
1583762876676117997,309,1583762876486533981,imu,-0.0199585109949,-0.00738525902852,0.70826729066,0.705944363941,0.0,0.0,0.0,0.0,0.0,0.0,0.0,0.0,0.0,0.0,0.0,0.0,0.0,0.0,0.0,0.0,0.0,0.0,0.0,0.0,0.0,-0.0156250055879,-0.0312500111759,-0.0351562611759,0.0,0.0,0.0,0.0,0.0,0.0,0.0,0.0,0.0
1583762876776054915,310,1583762876586533981,imu,-0.0201416164637,-0.00726318871602,0.7074739695,0.706739402099,0.0,0.0,0.0,0.0,0.0,0.0,0.0,0.0,0.0,0.0,0.0,0.0,0.0,0.0,0.0,0.0,0.0,0.0,0.0,0.0,0.0,-0.0625000223517,-0.0664062723517,0.0117187537253,0.0,0.0,0.0,0.0,0.0,0.0,0.0,0.0,0.0
1583762876876574227,311,1583762876686533981,imu,-0.0202026516199,-0.00714111840352,0.706471213498,0.707741778122,0.0,0.0,0.0,0.0,0.0,0.0,0.0,0.0,0.0,0.0,0.0,0.0,0.0,0.0,0.0,0.0,0.0,0.0,0.0,0.0,0.0,-0.0468750149012,-0.0234375074506,-0.0273437593132,0.0,0.0,0.0,0.0,0.0,0.0,0.0,0.0,0.0
1583762876976885905,312,1583762876786533981,imu,-0.0203857570887,-0.00689697777852,0.705007807838,0.709199542362,0.0,0.0,0.0,0.0,0.0,0.0,0.0,0.0,0.0,0.0,0.0,0.0,0.0,0.0,0.0,0.0,0.0,0.0,0.0,0.0,0.0,-0.0390625149012,-0.0156250055879,0.0117187537253,0.0,0.0,0.0,0.0,0.0,0.0,0.0,0.0,0.0
1583762877076698627,313,1583762876889533981,imu,-0.0205078274012,-0.00659180153161,0.702937750007,0.711251375827,0.0,0.0,0.0,0.0,0.0,0.0,0.0,0.0,0.0,0.0,0.0,0.0,0.0,0.0,0.0,0.0,0.0,0.0,0.0,0.0,0.0,0.0351562611759,0.0546875186265,0.0117187537253,0.0,0.0,0.0,0.0,0.0,0.0,0.0,0.0,0.0
1583762877176484924,314,1583762876990741109,imu,-0.0205688625574,-0.00665283668786,0.700165964281,0.713980127498,0.0,0.0,0.0,0.0,0.0,0.0,0.0,0.0,0.0,0.0,0.0,0.0,0.0,0.0,0.0,0.0,0.0,0.0,0.0,0.0,0.0,-0.0468750149012,-0.0664062723517,-0.0273437593132,0.0,0.0,0.0,0.0,0.0,0.0,0.0,0.0,0.0
1583762877276741351,315,1583762877090741109,imu,-0.0205688625574,-0.00659180153161,0.695980677731,0.718060510142,0.0,0.0,0.0,0.0,0.0,0.0,0.0,0.0,0.0,0.0,0.0,0.0,0.0,0.0,0.0,0.0,0.0,0.0,0.0,0.0,0.0,0.0273437593132,-0.0585937723517,0.0195312574506,0.0,0.0,0.0,0.0,0.0,0.0,0.0,0.0,0.0
1583762877376332589,316,1583762877191741109,imu,-0.0206298977137,-0.00634766090661,0.688567028768,0.725172701426,0.0,0.0,0.0,0.0,0.0,0.0,0.0,0.0,0.0,0.0,0.0,0.0,0.0,0.0,0.0,0.0,0.0,0.0,0.0,0.0,0.0,-0.0468750149012,-0.00781250279397,-0.0195312574506,0.0,0.0,0.0,0.0,0.0,0.0,0.0,0.0,0.0
1583762877476429736,317,1583762877290741109,imu,-0.0206909328699,-0.00610351981595,0.675403520337,0.737448360712,0.0,0.0,0.0,0.0,0.0,0.0,0.0,0.0,0.0,0.0,0.0,0.0,0.0,0.0,0.0,0.0,0.0,0.0,0.0,0.0,0.0,-0.0156250055879,-0.0156250055879,-0.0195312574506,0.0,0.0,0.0,0.0,0.0,0.0,0.0,0.0,0.0
1583762877576393650,318,1583762877390741109,imu,-0.0208130031824,-0.0057983440347,0.647150272869,0.762362462564,0.0,0.0,0.0,0.0,0.0,0.0,0.0,0.0,0.0,0.0,0.0,0.0,0.0,0.0,0.0,0.0,0.0,0.0,0.0,0.0,0.0,0.0273437593132,-0.0234375074506,0.0195312574506,0.0,0.0,0.0,0.0,0.0,0.0,0.0,0.0,0.0
1583762877676348205,319,1583762877491741109,imu,-0.0208740383387,-0.0056762737222,0.578517534525,0.815669946883,0.0,0.0,0.0,0.0,0.0,0.0,0.0,0.0,0.0,0.0,0.0,0.0,0.0,0.0,0.0,0.0,0.0,0.0,0.0,0.0,0.0,-0.0546875186265,-0.0234375074506,-0.0195312574506,0.0,0.0,0.0,0.0,0.0,0.0,0.0,0.0,0.0
1583762877776732446,320,1583762877590741109,imu,-0.0208130031824,-0.00537109747529,0.403499946896,0.914979668001,0.0,0.0,0.0,0.0,0.0,0.0,0.0,0.0,0.0,0.0,0.0,0.0,0.0,0.0,0.0,0.0,0.0,0.0,0.0,0.0,0.0,-0.00781250279397,-0.0156250055879,0.0195312574506,0.0,0.0,0.0,0.0,0.0,0.0,0.0,0.0,0.0
1583762877876753137,321,1583762877691741109,imu,-0.0209350734949,-0.00518799200654,0.243155371599,0.969987353146,0.0,0.0,0.0,0.0,0.0,0.0,0.0,0.0,0.0,0.0,0.0,0.0,0.0,0.0,0.0,0.0,0.0,0.0,0.0,0.0,0.0,-0.0390625149012,0.0156250055879,0.0117187537253,0.0,0.0,0.0,0.0,0.0,0.0,0.0,0.0,0.0
1583762877976316212,322,1583762877790741109,imu,-0.0208740383387,-0.00476074544713,0.410342614492,0.911931433131,0.0,0.0,0.0,0.0,0.0,0.0,0.0,0.0,0.0,0.0,0.0,0.0,0.0,0.0,0.0,0.0,0.0,0.0,0.0,0.0,0.0,0.0351562611759,0.00781250279397,-0.0273437593132,0.0,0.0,0.0,0.0,0.0,0.0,0.0,0.0,0.0
1583762878076358675,323,1583762877890741109,imu,-0.0206909328699,-0.00439453450963,0.583134845239,0.812375376454,0.0,0.0,0.0,0.0,0.0,0.0,0.0,0.0,0.0,0.0,0.0,0.0,0.0,0.0,0.0,0.0,0.0,0.0,0.0,0.0,0.0,0.0351562611759,-0.0312500111759,0.0195312574506,0.0,0.0,0.0,0.0,0.0,0.0,0.0,0.0,0.0
1583762878176673329,324,1583762877990741109,imu,-0.0205078274012,-0.00415039341897,0.64877364834,0.760981440785,0.0,0.0,0.0,0.0,0.0,0.0,0.0,0.0,0.0,0.0,0.0,0.0,0.0,0.0,0.0,0.0,0.0,0.0,0.0,0.0,0.0,-0.0468750149012,0.00781250279397,-0.0195312574506,0.0,0.0,0.0,0.0,0.0,0.0,0.0,0.0,0.0
1583762878276462358,325,1583762878090741109,imu,-0.0206298977137,-0.00390625279397,0.674819153189,0.737983136995,0.0,0.0,0.0,0.0,0.0,0.0,0.0,0.0,0.0,0.0,0.0,0.0,0.0,0.0,0.0,0.0,0.0,0.0,0.0,0.0,0.0,-0.0468750149012,0.0546875186265,0.0195312574506,0.0,0.0,0.0,0.0,0.0,0.0,0.0,0.0,0.0
1583762878376209403,326,1583762878190741109,imu,-0.0207519680262,-0.00354004162364,0.687284738231,0.726388111545,0.0,0.0,0.0,0.0,0.0,0.0,0.0,0.0,0.0,0.0,0.0,0.0,0.0,0.0,0.0,0.0,0.0,0.0,0.0,0.0,0.0,0.0,0.00781250279397,0.0195312574506,0.0,0.0,0.0,0.0,0.0,0.0,0.0,0.0,0.0
1583762878476574887,327,1583762878290741109,imu,-0.0206909328699,-0.00323486560956,0.69463516138,0.719362212363,0.0,0.0,0.0,0.0,0.0,0.0,0.0,0.0,0.0,0.0,0.0,0.0,0.0,0.0,0.0,0.0,0.0,0.0,0.0,0.0,0.0,-0.0390625149012,-0.0390625149012,-0.0273437593132,0.0,0.0,0.0,0.0,0.0,0.0,0.0,0.0,0.0
1583762878576102574,328,1583762878390741109,imu,-0.0207519680262,-0.00286865443923,0.699021569516,0.71510058408,0.0,0.0,0.0,0.0,0.0,0.0,0.0,0.0,0.0,0.0,0.0,0.0,0.0,0.0,0.0,0.0,0.0,0.0,0.0,0.0,0.0,0.0156250055879,-0.0312500111759,-0.0273437593132,0.0,0.0,0.0,0.0,0.0,0.0,0.0,0.0,0.0
1583762878676331533,329,1583762878490741109,imu,-0.0207519680262,-0.0025024432689,0.701959473657,0.712216889257,0.0,0.0,0.0,0.0,0.0,0.0,0.0,0.0,0.0,0.0,0.0,0.0,0.0,0.0,0.0,0.0,0.0,0.0,0.0,0.0,0.0,-0.0234375074506,0.0156250055879,-0.0195312574506,0.0,0.0,0.0,0.0,0.0,0.0,0.0,0.0,0.0
1583762878776179795,330,1583762878591741109,imu,-0.0208130031824,-0.00213623209856,0.703939982461,0.710259460403,0.0,0.0,0.0,0.0,0.0,0.0,0.0,0.0,0.0,0.0,0.0,0.0,0.0,0.0,0.0,0.0,0.0,0.0,0.0,0.0,0.0,-0.0703125223517,0.0156250055879,0.0195312574506,0.0,0.0,0.0,0.0,0.0,0.0,0.0,0.0,0.0
1583762878876213927,331,1583762878690741109,imu,-0.0208130031824,-0.00183105596807,0.705434923806,0.708774695002,0.0,0.0,0.0,0.0,0.0,0.0,0.0,0.0,0.0,0.0,0.0,0.0,0.0,0.0,0.0,0.0,0.0,0.0,0.0,0.0,0.0,0.0156250055879,0.0156250055879,0.0195312574506,0.0,0.0,0.0,0.0,0.0,0.0,0.0,0.0,0.0
1583762878976620293,332,1583762878789741109,imu,-0.0208740383387,-0.00158691522665,0.706495478644,0.707717555707,0.0,0.0,0.0,0.0,0.0,0.0,0.0,0.0,0.0,0.0,0.0,0.0,0.0,0.0,0.0,0.0,0.0,0.0,0.0,0.0,0.0,0.0156250055879,0.0156250055879,-0.0195312574506,0.0,0.0,0.0,0.0,0.0,0.0,0.0,0.0,0.0
1583762879076302893,333,1583762878890741109,imu,-0.0209350734949,-0.00140380964149,0.707322945857,0.706890550413,0.0,0.0,0.0,0.0,0.0,0.0,0.0,0.0,0.0,0.0,0.0,0.0,0.0,0.0,0.0,0.0,0.0,0.0,0.0,0.0,0.0,-0.0234375074506,-0.0312500111759,0.0195312574506,0.0,0.0,0.0,0.0,0.0,0.0,0.0,0.0,0.0
1583762879177252188,334,1583762878990741109,imu,-0.0208130031824,-0.00122070405632,0.708034070676,0.706178274066,0.0,0.0,0.0,0.0,0.0,0.0,0.0,0.0,0.0,0.0,0.0,0.0,0.0,0.0,0.0,0.0,0.0,0.0,0.0,0.0,0.0,0.0156250055879,0.00781250279397,-0.0195312574506,0.0,0.0,0.0,0.0,0.0,0.0,0.0,0.0,0.0
1583762879276371418,335,1583762879090741109,imu,-0.0208130031824,-0.000915527984034,0.708570200012,0.705640327402,0.0,0.0,0.0,0.0,0.0,0.0,0.0,0.0,0.0,0.0,0.0,0.0,0.0,0.0,0.0,0.0,0.0,0.0,0.0,0.0,0.0,0.0898437798023,0.0,0.0117187537253,0.0,0.0,0.0,0.0,0.0,0.0,0.0,0.0,0.0
1583762879376125396,336,1583762879190741109,imu,-0.0208740383387,-0.000732422398869,0.708974445327,0.705234170948,0.0,0.0,0.0,0.0,0.0,0.0,0.0,0.0,0.0,0.0,0.0,0.0,0.0,0.0,0.0,0.0,0.0,0.0,0.0,0.0,0.0,0.00781250279397,-0.0390625149012,0.00390625139698,0.0,0.0,0.0,0.0,0.0,0.0,0.0,0.0,0.0
1583762879476436577,337,1583762879291741109,imu,-0.0207519680262,-0.000488281599246,0.709361145915,0.704845206174,0.0,0.0,0.0,0.0,0.0,0.0,0.0,0.0,0.0,0.0,0.0,0.0,0.0,0.0,0.0,0.0,0.0,0.0,0.0,0.0,0.0,-0.0390625149012,0.0390625149012,-0.0273437593132,0.0,0.0,0.0,0.0,0.0,0.0,0.0,0.0,0.0
1583762879576109995,338,1583762879390741109,imu,-0.0208130031824,-0.000488281599246,0.70963546372,0.704569023326,0.0,0.0,0.0,0.0,0.0,0.0,0.0,0.0,0.0,0.0,0.0,0.0,0.0,0.0,0.0,0.0,0.0,0.0,0.0,0.0,0.0,-0.0703125223517,0.0,0.0117187537253,0.0,0.0,0.0,0.0,0.0,0.0,0.0,0.0,0.0
1583762879676641676,339,1583762879450741109,imu,-0.0206298977137,-0.000244140799623,0.709919089529,0.704283242965,0.0,0.0,0.0,0.0,0.0,0.0,0.0,0.0,0.0,0.0,0.0,0.0,0.0,0.0,0.0,0.0,0.0,0.0,0.0,0.0,0.0,-0.0703125223517,0.0,0.0117187537253,0.0,0.0,0.0,0.0,0.0,0.0,0.0,0.0,0.0
1583762879776127290,340,1583762879555421964,imu,-0.0206298977137,-0.000122070399811,0.710124609504,0.704076017896,0.0,0.0,0.0,0.0,0.0,0.0,0.0,0.0,0.0,0.0,0.0,0.0,0.0,0.0,0.0,0.0,0.0,0.0,0.0,0.0,0.0,-0.0234375074506,-0.0390625149012,-0.0585937723517,0.0,0.0,0.0,0.0,0.0,0.0,0.0,0.0,0.0
1583762879876434079,341,1583762879555421964,imu,-0.0206298977137,-0.000122070399811,0.711786575809,0.702395807575,0.0,0.0,0.0,0.0,0.0,0.0,0.0,0.0,0.0,0.0,0.0,0.0,0.0,0.0,0.0,0.0,0.0,0.0,0.0,0.0,0.0,-0.0234375074506,-0.0390625149012,-0.0585937723517,0.0,0.0,0.0,0.0,0.0,0.0,0.0,0.0,0.0
1583762879976509924,342,1583762879755421964,imu,-0.0206909328699,0.000122070399811,0.710436489283,0.703761319409,0.0,0.0,0.0,0.0,0.0,0.0,0.0,0.0,0.0,0.0,0.0,0.0,0.0,0.0,0.0,0.0,0.0,0.0,0.0,0.0,0.0,-0.0703125223517,0.00781250279397,0.0195312574506,0.0,0.0,0.0,0.0,0.0,0.0,0.0,0.0,0.0
1583762880076725147,343,1583762879895421964,imu,-0.0206298977137,0.000122070399811,0.710576127588,0.703620328659,0.0,0.0,0.0,0.0,0.0,0.0,0.0,0.0,0.0,0.0,0.0,0.0,0.0,0.0,0.0,0.0,0.0,0.0,0.0,0.0,0.0,-0.0468750149012,0.0,-0.0273437593132,0.0,0.0,0.0,0.0,0.0,0.0,0.0,0.0,0.0
1583762880176096337,344,1583762879995421964,imu,-0.0206298977137,0.000244140799623,0.710689270924,0.703506048441,0.0,0.0,0.0,0.0,0.0,0.0,0.0,0.0,0.0,0.0,0.0,0.0,0.0,0.0,0.0,0.0,0.0,0.0,0.0,0.0,0.0,0.0,0.0,-0.0195312574506,0.0,0.0,0.0,0.0,0.0,0.0,0.0,0.0,0.0
1583762880276302445,345,1583762880095421964,imu,-0.0205688625574,0.000427246384788,0.710795844598,0.703398370273,0.0,0.0,0.0,0.0,0.0,0.0,0.0,0.0,0.0,0.0,0.0,0.0,0.0,0.0,0.0,0.0,0.0,0.0,0.0,0.0,0.0,0.0,-0.0468750149012,-0.0273437593132,0.0,0.0,0.0,0.0,0.0,0.0,0.0,0.0,0.0
1583762880376683600,346,1583762880195421964,imu,-0.0204467922449,0.000549316813704,0.710895626329,0.703297524854,0.0,0.0,0.0,0.0,0.0,0.0,0.0,0.0,0.0,0.0,0.0,0.0,0.0,0.0,0.0,0.0,0.0,0.0,0.0,0.0,0.0,-0.0390625149012,0.0312500111759,0.0117187537253,0.0,0.0,0.0,0.0,0.0,0.0,0.0,0.0,0.0
1583762880476333804,347,1583762880295421964,imu,-0.0203857570887,0.000732422398869,0.710978381881,0.703213865405,0.0,0.0,0.0,0.0,0.0,0.0,0.0,0.0,0.0,0.0,0.0,0.0,0.0,0.0,0.0,0.0,0.0,0.0,0.0,0.0,0.0,0.0,-0.0468750149012,0.0117187537253,0.0,0.0,0.0,0.0,0.0,0.0,0.0,0.0,0.0
1583762880576373981,348,1583762880395421964,imu,-0.0203247219324,0.000854492769577,0.711052401353,0.70313902077,0.0,0.0,0.0,0.0,0.0,0.0,0.0,0.0,0.0,0.0,0.0,0.0,0.0,0.0,0.0,0.0,0.0,0.0,0.0,0.0,0.0,0.113281287253,0.0625000223517,0.0507812686265,0.0,0.0,0.0,0.0,0.0,0.0,0.0,0.0,0.0
1583762880676671052,349,1583762880495421964,imu,-0.0202026516199,0.00103759835474,0.711121789109,0.703068845174,0.0,0.0,0.0,0.0,0.0,0.0,0.0,0.0,0.0,0.0,0.0,0.0,0.0,0.0,0.0,0.0,0.0,0.0,0.0,0.0,0.0,-0.0468750149012,-0.0546875186265,-0.0273437593132,0.0,0.0,0.0,0.0,0.0,0.0,0.0,0.0,0.0
1583762880776324897,350,1583762880594421964,imu,-0.0200805813074,0.000976563198492,0.711166529336,0.703023589613,0.0,0.0,0.0,0.0,0.0,0.0,0.0,0.0,0.0,0.0,0.0,0.0,0.0,0.0,0.0,0.0,0.0,0.0,0.0,0.0,0.0,0.335937619209,-0.0234375074506,-0.0273437593132,0.0,0.0,0.0,0.0,0.0,0.0,0.0,0.0,0.0
1583762880876416766,351,1583762880695421964,imu,-0.0201416164637,0.000793457613327,0.71117565135,0.703014361821,0.0,0.0,0.0,0.0,0.0,0.0,0.0,0.0,0.0,0.0,0.0,0.0,0.0,0.0,0.0,0.0,0.0,0.0,0.0,0.0,0.0,0.179687559605,-0.0546875186265,0.0117187537253,0.0,0.0,0.0,0.0,0.0,0.0,0.0,0.0,0.0
1583762880976451232,352,1583762880795421964,imu,-0.0203857570887,0.000366211199434,0.711160528701,0.7030296597,0.0,0.0,0.0,0.0,0.0,0.0,0.0,0.0,0.0,0.0,0.0,0.0,0.0,0.0,0.0,0.0,0.0,0.0,0.0,0.0,0.0,-0.117187544703,0.0,-0.0273437593132,0.0,0.0,0.0,0.0,0.0,0.0,0.0,0.0,0.0
1583762881076240520,353,1583762880894421964,imu,-0.0206298977137,0.0,0.711142895754,0.703047496133,0.0,0.0,0.0,0.0,0.0,0.0,0.0,0.0,0.0,0.0,0.0,0.0,0.0,0.0,0.0,0.0,0.0,0.0,0.0,0.0,0.0,-0.0742187798023,0.0,0.0195312574506,0.0,0.0,0.0,0.0,0.0,0.0,0.0,0.0,0.0
1583762881176350604,354,1583762880995421964,imu,-0.0208130031824,-0.000183105599717,0.711129479481,0.703061066631,0.0,0.0,0.0,0.0,0.0,0.0,0.0,0.0,0.0,0.0,0.0,0.0,0.0,0.0,0.0,0.0,0.0,0.0,0.0,0.0,0.0,-0.0664062723517,0.0,0.0195312574506,0.0,0.0,0.0,0.0,0.0,0.0,0.0,0.0,0.0
1583762881276434216,355,1583762881094421964,imu,-0.0209350734949,-0.000427246384788,0.71112062881,0.703070018761,0.0,0.0,0.0,0.0,0.0,0.0,0.0,0.0,0.0,0.0,0.0,0.0,0.0,0.0,0.0,0.0,0.0,0.0,0.0,0.0,0.0,-0.101562537253,0.0,-0.0195312574506,0.0,0.0,0.0,0.0,0.0,0.0,0.0,0.0,0.0
1583762881376152142,356,1583762881195421964,imu,-0.0210571438074,-0.000427246384788,0.711111082692,0.703079674057,0.0,0.0,0.0,0.0,0.0,0.0,0.0,0.0,0.0,0.0,0.0,0.0,0.0,0.0,0.0,0.0,0.0,0.0,0.0,0.0,0.0,-0.00781250279397,0.0,0.0117187537253,0.0,0.0,0.0,0.0,0.0,0.0,0.0,0.0,0.0
1583762881476302544,357,1583762881295421964,imu,-0.0210571438074,-0.000183105599717,0.711111087187,0.703079669511,0.0,0.0,0.0,0.0,0.0,0.0,0.0,0.0,0.0,0.0,0.0,0.0,0.0,0.0,0.0,0.0,0.0,0.0,0.0,0.0,0.0,-0.0156250055879,0.0,-0.0273437593132,0.0,0.0,0.0,0.0,0.0,0.0,0.0,0.0,0.0
1583762881576388032,358,1583762881394421964,imu,-0.0210571438074,0.000122070399811,0.711111323273,0.703079430728,0.0,0.0,0.0,0.0,0.0,0.0,0.0,0.0,0.0,0.0,0.0,0.0,0.0,0.0,0.0,0.0,0.0,0.0,0.0,0.0,0.0,0.0,0.0,0.0117187537253,0.0,0.0,0.0,0.0,0.0,0.0,0.0,0.0,0.0
1583762881676496936,359,1583762881494421964,imu,-0.0209961086512,0.000366211199434,0.711116602432,0.70307409122,0.0,0.0,0.0,0.0,0.0,0.0,0.0,0.0,0.0,0.0,0.0,0.0,0.0,0.0,0.0,0.0,0.0,0.0,0.0,0.0,0.0,0.0,-0.00781250279397,0.0117187537253,0.0,0.0,0.0,0.0,0.0,0.0,0.0,0.0,0.0
1583762881776439313,360,1583762881595421964,imu,-0.0209350734949,0.000610352028161,0.711121764005,0.703068870566,0.0,0.0,0.0,0.0,0.0,0.0,0.0,0.0,0.0,0.0,0.0,0.0,0.0,0.0,0.0,0.0,0.0,0.0,0.0,0.0,0.0,0.00781250279397,0.0,-0.0273437593132,0.0,0.0,0.0,0.0,0.0,0.0,0.0,0.0,0.0
1583762881876324233,361,1583762881694421964,imu,-0.0209961086512,0.000854492769577,0.711117623278,0.703073058695,0.0,0.0,0.0,0.0,0.0,0.0,0.0,0.0,0.0,0.0,0.0,0.0,0.0,0.0,0.0,0.0,0.0,0.0,0.0,0.0,0.0,0.0,0.0,0.0117187537253,0.0,0.0,0.0,0.0,0.0,0.0,0.0,0.0,0.0
1583762881976090025,362,1583762881795421964,imu,-0.0210571438074,0.00122070405632,0.711114194434,0.703076526756,0.0,0.0,0.0,0.0,0.0,0.0,0.0,0.0,0.0,0.0,0.0,0.0,0.0,0.0,0.0,0.0,0.0,0.0,0.0,0.0,0.0,0.00781250279397,0.0,0.0117187537253,0.0,0.0,0.0,0.0,0.0,0.0,0.0,0.0,0.0
1583762882076820161,363,1583762881895421964,imu,-0.0209961086512,0.00140380964149,0.711119832656,0.703070824031,0.0,0.0,0.0,0.0,0.0,0.0,0.0,0.0,0.0,0.0,0.0,0.0,0.0,0.0,0.0,0.0,0.0,0.0,0.0,0.0,0.0,0.00781250279397,0.0,0.0117187537253,0.0,0.0,0.0,0.0,0.0,0.0,0.0,0.0,0.0
1583762882176761767,364,1583762881997421964,imu,-0.0209350734949,0.00158691522665,0.711125582392,0.703065008422,0.0,0.0,0.0,0.0,0.0,0.0,0.0,0.0,0.0,0.0,0.0,0.0,0.0,0.0,0.0,0.0,0.0,0.0,0.0,0.0,0.0,0.00781250279397,0.0,0.0117187537253,0.0,0.0,0.0,0.0,0.0,0.0,0.0,0.0,0.0
1583762882276368293,365,1583762882100779939,imu,-0.0209350734949,0.00170898553915,0.711126309386,0.703064273092,0.0,0.0,0.0,0.0,0.0,0.0,0.0,0.0,0.0,0.0,0.0,0.0,0.0,0.0,0.0,0.0,0.0,0.0,0.0,0.0,0.0,0.0,0.0,-0.0273437593132,0.0,0.0,0.0,0.0,0.0,0.0,0.0,0.0,0.0
1583762882376193099,366,1583762882200779939,imu,-0.0209961086512,0.00189209124073,0.711122739902,0.70306788349,0.0,0.0,0.0,0.0,0.0,0.0,0.0,0.0,0.0,0.0,0.0,0.0,0.0,0.0,0.0,0.0,0.0,0.0,0.0,0.0,0.0,0.00781250279397,0.0,0.0195312574506,0.0,0.0,0.0,0.0,0.0,0.0,0.0,0.0,0.0
1583762882476270094,367,1583762882300779939,imu,-0.0209961086512,0.00195312639698,0.711123165749,0.703067452763,0.0,0.0,0.0,0.0,0.0,0.0,0.0,0.0,0.0,0.0,0.0,0.0,0.0,0.0,0.0,0.0,0.0,0.0,0.0,0.0,0.0,0.0,0.0,0.0117187537253,0.0,0.0,0.0,0.0,0.0,0.0,0.0,0.0,0.0
1583762882576713469,368,1583762882400779939,imu,-0.0210571438074,0.00213623209856,0.711119425026,0.703071236327,0.0,0.0,0.0,0.0,0.0,0.0,0.0,0.0,0.0,0.0,0.0,0.0,0.0,0.0,0.0,0.0,0.0,0.0,0.0,0.0,0.0,0.0,0.00781250279397,-0.0273437593132,0.0,0.0,0.0,0.0,0.0,0.0,0.0,0.0,0.0
1583762882676536283,369,1583762882499779939,imu,-0.0209961086512,0.00225830241106,0.711125503169,0.703065088553,0.0,0.0,0.0,0.0,0.0,0.0,0.0,0.0,0.0,0.0,0.0,0.0,0.0,0.0,0.0,0.0,0.0,0.0,0.0,0.0,0.0,0.00781250279397,0.0,0.0117187537253,0.0,0.0,0.0,0.0,0.0,0.0,0.0,0.0,0.0
1583762882776021765,370,1583762882600779939,imu,-0.0209350734949,0.00238037272356,0.711131300076,0.703059225139,0.0,0.0,0.0,0.0,0.0,0.0,0.0,0.0,0.0,0.0,0.0,0.0,0.0,0.0,0.0,0.0,0.0,0.0,0.0,0.0,0.0,0.00781250279397,0.0,0.0117187537253,0.0,0.0,0.0,0.0,0.0,0.0,0.0,0.0,0.0
1583762882876357146,371,1583762882700779939,imu,-0.0209350734949,0.00244140811265,0.711132155309,0.703058360085,0.0,0.0,0.0,0.0,0.0,0.0,0.0,0.0,0.0,0.0,0.0,0.0,0.0,0.0,0.0,0.0,0.0,0.0,0.0,0.0,0.0,0.00781250279397,0.0,0.0117187537253,0.0,0.0,0.0,0.0,0.0,0.0,0.0,0.0,0.0
1583762882975996105,372,1583762882800779939,imu,-0.0209350734949,0.0025024432689,0.711132705954,0.703057803116,0.0,0.0,0.0,0.0,0.0,0.0,0.0,0.0,0.0,0.0,0.0,0.0,0.0,0.0,0.0,0.0,0.0,0.0,0.0,0.0,0.0,0.00781250279397,0.0,-0.0273437593132,0.0,0.0,0.0,0.0,0.0,0.0,0.0,0.0,0.0
1583762883076773874,373,1583762882899779939,imu,-0.0209961086512,0.00256347842515,0.711128507311,0.703062049957,0.0,0.0,0.0,0.0,0.0,0.0,0.0,0.0,0.0,0.0,0.0,0.0,0.0,0.0,0.0,0.0,0.0,0.0,0.0,0.0,0.0,0.00781250279397,0.0,0.0117187537253,0.0,0.0,0.0,0.0,0.0,0.0,0.0,0.0,0.0
1583762883176219634,374,1583762883000779939,imu,-0.0209961086512,0.00268554873765,0.711129677807,0.70306086603,0.0,0.0,0.0,0.0,0.0,0.0,0.0,0.0,0.0,0.0,0.0,0.0,0.0,0.0,0.0,0.0,0.0,0.0,0.0,0.0,0.0,0.0,0.00781250279397,0.0117187537253,0.0,0.0,0.0,0.0,0.0,0.0,0.0,0.0,0.0
1583762883276311671,375,1583762883099779939,imu,-0.0210571438074,0.00268554873765,0.711124900549,0.703065698082,0.0,0.0,0.0,0.0,0.0,0.0,0.0,0.0,0.0,0.0,0.0,0.0,0.0,0.0,0.0,0.0,0.0,0.0,0.0,0.0,0.0,0.0,0.00781250279397,0.0117187537253,0.0,0.0,0.0,0.0,0.0,0.0,0.0,0.0,0.0
1583762883376249056,376,1583762883200779939,imu,-0.0210571438074,0.0026245135814,0.711124308453,0.703066296965,0.0,0.0,0.0,0.0,0.0,0.0,0.0,0.0,0.0,0.0,0.0,0.0,0.0,0.0,0.0,0.0,0.0,0.0,0.0,0.0,0.0,-0.00781250279397,0.0,0.00390625139698,0.0,0.0,0.0,0.0,0.0,0.0,0.0,0.0,0.0
1583762883476977772,377,1583762883301779939,imu,-0.0209961086512,0.00268554873765,0.711129677807,0.70306086603,0.0,0.0,0.0,0.0,0.0,0.0,0.0,0.0,0.0,0.0,0.0,0.0,0.0,0.0,0.0,0.0,0.0,0.0,0.0,0.0,0.0,0.0,0.0,0.00390625139698,0.0,0.0,0.0,0.0,0.0,0.0,0.0,0.0,0.0
1583762883576642282,378,1583762883401779939,imu,-0.0209961086512,0.00268554873765,0.711129677807,0.70306086603,0.0,0.0,0.0,0.0,0.0,0.0,0.0,0.0,0.0,0.0,0.0,0.0,0.0,0.0,0.0,0.0,0.0,0.0,0.0,0.0,0.0,0.00781250279397,0.0,0.00390625139698,0.0,0.0,0.0,0.0,0.0,0.0,0.0,0.0,0.0
1583762883676267744,379,1583762883499779939,imu,-0.0211181789637,0.00280761928298,0.711121657404,0.703068978387,0.0,0.0,0.0,0.0,0.0,0.0,0.0,0.0,0.0,0.0,0.0,0.0,0.0,0.0,0.0,0.0,0.0,0.0,0.0,0.0,0.0,0.00781250279397,0.00781250279397,0.00390625139698,0.0,0.0,0.0,0.0,0.0,0.0,0.0,0.0,0.0
1583762883777639222,380,1583762883600779939,imu,-0.0210571438074,0.00280761928298,0.711126446859,0.703064134043,0.0,0.0,0.0,0.0,0.0,0.0,0.0,0.0,0.0,0.0,0.0,0.0,0.0,0.0,0.0,0.0,0.0,0.0,0.0,0.0,0.0,0.0,0.0,0.00390625139698,0.0,0.0,0.0,0.0,0.0,0.0,0.0,0.0,0.0
1583762883876334779,381,1583762883699779939,imu,-0.0211181789637,0.00286865443923,0.711122290801,0.703068337735,0.0,0.0,0.0,0.0,0.0,0.0,0.0,0.0,0.0,0.0,0.0,0.0,0.0,0.0,0.0,0.0,0.0,0.0,0.0,0.0,0.0,0.0,0.0,-0.0351562611759,0.0,0.0,0.0,0.0,0.0,0.0,0.0,0.0,0.0
1583762883976264451,382,1583762883799779939,imu,-0.0211181789637,0.00286865443923,0.711121968671,0.703068663555,0.0,0.0,0.0,0.0,0.0,0.0,0.0,0.0,0.0,0.0,0.0,0.0,0.0,0.0,0.0,0.0,0.0,0.0,0.0,0.0,0.0,0.0,0.0,0.0117187537253,0.0,0.0,0.0,0.0,0.0,0.0,0.0,0.0,0.0
1583762884076277138,383,1583762883900779939,imu,-0.0210571438074,0.00280761928298,0.711126126381,0.703064458196,0.0,0.0,0.0,0.0,0.0,0.0,0.0,0.0,0.0,0.0,0.0,0.0,0.0,0.0,0.0,0.0,0.0,0.0,0.0,0.0,0.0,0.0,0.0,0.0117187537253,0.0,0.0,0.0,0.0,0.0,0.0,0.0,0.0,0.0
1583762884176775572,384,1583762883999779939,imu,-0.0210571438074,0.00286865443923,0.711126439692,0.703064141292,0.0,0.0,0.0,0.0,0.0,0.0,0.0,0.0,0.0,0.0,0.0,0.0,0.0,0.0,0.0,0.0,0.0,0.0,0.0,0.0,0.0,0.0,0.0,0.0117187537253,0.0,0.0,0.0,0.0,0.0,0.0,0.0,0.0,0.0
1583762884276688655,385,1583762884099779939,imu,-0.0210571438074,0.00286865443923,0.711126760115,0.703063817195,0.0,0.0,0.0,0.0,0.0,0.0,0.0,0.0,0.0,0.0,0.0,0.0,0.0,0.0,0.0,0.0,0.0,0.0,0.0,0.0,0.0,0.0,0.0,0.00390625139698,0.0,0.0,0.0,0.0,0.0,0.0,0.0,0.0,0.0
1583762884376264920,386,1583762884200779939,imu,-0.0209961086512,0.0027465838939,0.711130283873,0.703060253008,0.0,0.0,0.0,0.0,0.0,0.0,0.0,0.0,0.0,0.0,0.0,0.0,0.0,0.0,0.0,0.0,0.0,0.0,0.0,0.0,0.0,0.0,0.0,0.00390625139698,0.0,0.0,0.0,0.0,0.0,0.0,0.0,0.0,0.0
1583762884476482702,387,1583762884300779939,imu,-0.0209961086512,0.00280761928298,0.71113090382,0.703059625944,0.0,0.0,0.0,0.0,0.0,0.0,0.0,0.0,0.0,0.0,0.0,0.0,0.0,0.0,0.0,0.0,0.0,0.0,0.0,0.0,0.0,0.0,0.0,0.00390625139698,0.0,0.0,0.0,0.0,0.0,0.0,0.0,0.0,0.0
1583762884576051055,388,1583762884399779939,imu,-0.0209961086512,0.0027465838939,0.711130283873,0.703060253008,0.0,0.0,0.0,0.0,0.0,0.0,0.0,0.0,0.0,0.0,0.0,0.0,0.0,0.0,0.0,0.0,0.0,0.0,0.0,0.0,0.0,0.0,0.0,0.00390625139698,0.0,0.0,0.0,0.0,0.0,0.0,0.0,0.0,0.0
1583762884676354741,389,1583762884500779939,imu,-0.0209961086512,0.0027465838939,0.711130283873,0.703060253008,0.0,0.0,0.0,0.0,0.0,0.0,0.0,0.0,0.0,0.0,0.0,0.0,0.0,0.0,0.0,0.0,0.0,0.0,0.0,0.0,0.0,0.0,0.0,0.00390625139698,0.0,0.0,0.0,0.0,0.0,0.0,0.0,0.0,0.0
1583762884776918747,390,1583762884604756910,imu,-0.0209961086512,0.0027465838939,0.711130602701,0.70305993052,0.0,0.0,0.0,0.0,0.0,0.0,0.0,0.0,0.0,0.0,0.0,0.0,0.0,0.0,0.0,0.0,0.0,0.0,0.0,0.0,0.0,0.0,0.0,-0.0351562611759,0.0,0.0,0.0,0.0,0.0,0.0,0.0,0.0,0.0
1583762884876276687,391,1583762884664756910,imu,-0.0209961086512,0.00280761928298,0.711131540804,0.703058981646,0.0,0.0,0.0,0.0,0.0,0.0,0.0,0.0,0.0,0.0,0.0,0.0,0.0,0.0,0.0,0.0,0.0,0.0,0.0,0.0,0.0,0.0,0.0,-0.0351562611759,0.0,0.0,0.0,0.0,0.0,0.0,0.0,0.0,0.0
1583762884976840645,392,1583762884803756910,imu,-0.0209961086512,0.00286865443923,0.711131855985,0.703058662846,0.0,0.0,0.0,0.0,0.0,0.0,0.0,0.0,0.0,0.0,0.0,0.0,0.0,0.0,0.0,0.0,0.0,0.0,0.0,0.0,0.0,0.0,0.0,0.0117187537253,0.0,0.0,0.0,0.0,0.0,0.0,0.0,0.0,0.0
1583762885076579734,393,1583762884904756910,imu,-0.0209961086512,0.00280761928298,0.711131222407,0.703059303699,0.0,0.0,0.0,0.0,0.0,0.0,0.0,0.0,0.0,0.0,0.0,0.0,0.0,0.0,0.0,0.0,0.0,0.0,0.0,0.0,0.0,0.0,0.0,0.00390625139698,0.0,0.0,0.0,0.0,0.0,0.0,0.0,0.0,0.0
1583762885176220487,394,1583762885004756910,imu,-0.0209961086512,0.00280761928298,0.711131540804,0.703058981646,0.0,0.0,0.0,0.0,0.0,0.0,0.0,0.0,0.0,0.0,0.0,0.0,0.0,0.0,0.0,0.0,0.0,0.0,0.0,0.0,0.0,0.0,0.0,0.00390625139698,0.0,0.0,0.0,0.0,0.0,0.0,0.0,0.0,0.0
1583762885276227017,395,1583762885103756910,imu,-0.0209961086512,0.00286865443923,0.711132174136,0.703058341042,0.0,0.0,0.0,0.0,0.0,0.0,0.0,0.0,0.0,0.0,0.0,0.0,0.0,0.0,0.0,0.0,0.0,0.0,0.0,0.0,0.0,0.0,0.0,-0.0273437593132,0.0,0.0,0.0,0.0,0.0,0.0,0.0,0.0,0.0
1583762885376366723,396,1583762885203756910,imu,-0.0210571438074,0.00286865443923,0.711127400389,0.703063169577,0.0,0.0,0.0,0.0,0.0,0.0,0.0,0.0,0.0,0.0,0.0,0.0,0.0,0.0,0.0,0.0,0.0,0.0,0.0,0.0,0.0,0.0,0.00781250279397,0.0117187537253,0.0,0.0,0.0,0.0,0.0,0.0,0.0,0.0,0.0
1583762885476524247,397,1583762885305756910,imu,-0.0210571438074,0.00286865443923,0.711127720242,0.703062846056,0.0,0.0,0.0,0.0,0.0,0.0,0.0,0.0,0.0,0.0,0.0,0.0,0.0,0.0,0.0,0.0,0.0,0.0,0.0,0.0,0.0,0.0,0.0,0.0117187537253,0.0,0.0,0.0,0.0,0.0,0.0,0.0,0.0,0.0
1583762885576064776,398,1583762885403756910,imu,-0.0210571438074,0.00280761928298,0.711127087247,0.703063486311,0.0,0.0,0.0,0.0,0.0,0.0,0.0,0.0,0.0,0.0,0.0,0.0,0.0,0.0,0.0,0.0,0.0,0.0,0.0,0.0,0.0,0.0,0.0,-0.0273437593132,0.0,0.0,0.0,0.0,0.0,0.0,0.0,0.0,0.0
1583762885676534322,399,1583762885503756910,imu,-0.0209961086512,0.00280761928298,0.711131859013,0.703058659783,0.0,0.0,0.0,0.0,0.0,0.0,0.0,0.0,0.0,0.0,0.0,0.0,0.0,0.0,0.0,0.0,0.0,0.0,0.0,0.0,0.0,0.00781250279397,-0.00781250279397,0.0117187537253,0.0,0.0,0.0,0.0,0.0,0.0,0.0,0.0,0.0
1583762885776278547,400,1583762885565756910,imu,-0.0209350734949,0.00286865443923,0.711137250058,0.703053206791,0.0,0.0,0.0,0.0,0.0,0.0,0.0,0.0,0.0,0.0,0.0,0.0,0.0,0.0,0.0,0.0,0.0,0.0,0.0,0.0,0.0,0.00781250279397,-0.00781250279397,0.0117187537253,0.0,0.0,0.0,0.0,0.0,0.0,0.0,0.0,0.0
1583762885876337351,401,1583762885565756910,imu,-0.0209350734949,0.00286865443923,0.711785416826,0.70239698205,0.0,0.0,0.0,0.0,0.0,0.0,0.0,0.0,0.0,0.0,0.0,0.0,0.0,0.0,0.0,0.0,0.0,0.0,0.0,0.0,0.0,0.00781250279397,-0.00781250279397,0.0117187537253,0.0,0.0,0.0,0.0,0.0,0.0,0.0,0.0,0.0
1583762885976339422,402,1583762885565756910,imu,-0.0209350734949,0.00286865443923,0.711785691097,0.702396704114,0.0,0.0,0.0,0.0,0.0,0.0,0.0,0.0,0.0,0.0,0.0,0.0,0.0,0.0,0.0,0.0,0.0,0.0,0.0,0.0,0.0,0.00781250279397,-0.00781250279397,0.0117187537253,0.0,0.0,0.0,0.0,0.0,0.0,0.0,0.0,0.0
1583762886076594828,403,1583762885904756910,imu,-0.0208740383387,0.00292968959548,0.71114295501,0.703047436195,0.0,0.0,0.0,0.0,0.0,0.0,0.0,0.0,0.0,0.0,0.0,0.0,0.0,0.0,0.0,0.0,0.0,0.0,0.0,0.0,0.0,0.0,0.00781250279397,0.0117187537253,0.0,0.0,0.0,0.0,0.0,0.0,0.0,0.0,0.0
1583762886176335630,404,1583762886003756910,imu,-0.0208740383387,0.00292968959548,0.71114295501,0.703047436195,0.0,0.0,0.0,0.0,0.0,0.0,0.0,0.0,0.0,0.0,0.0,0.0,0.0,0.0,0.0,0.0,0.0,0.0,0.0,0.0,0.0,0.0,0.0,0.0117187537253,0.0,0.0,0.0,0.0,0.0,0.0,0.0,0.0,0.0
1583762886276722276,405,1583762886103756910,imu,-0.0208130031824,0.00286865443923,0.711147036429,0.703043307755,0.0,0.0,0.0,0.0,0.0,0.0,0.0,0.0,0.0,0.0,0.0,0.0,0.0,0.0,0.0,0.0,0.0,0.0,0.0,0.0,0.0,0.0,0.0,0.00390625139698,0.0,0.0,0.0,0.0,0.0,0.0,0.0,0.0,0.0
1583762886376138981,406,1583762886203756910,imu,-0.0208740383387,0.00286865443923,0.711142308134,0.703048090518,0.0,0.0,0.0,0.0,0.0,0.0,0.0,0.0,0.0,0.0,0.0,0.0,0.0,0.0,0.0,0.0,0.0,0.0,0.0,0.0,0.0,0.0,0.0,-0.0351562611759,0.0,0.0,0.0,0.0,0.0,0.0,0.0,0.0,0.0
1583762886476326576,407,1583762886303756910,imu,-0.0208740383387,0.00286865443923,0.711142621961,0.703047773079,0.0,0.0,0.0,0.0,0.0,0.0,0.0,0.0,0.0,0.0,0.0,0.0,0.0,0.0,0.0,0.0,0.0,0.0,0.0,0.0,0.0,0.0,0.0,0.0117187537253,0.0,0.0,0.0,0.0,0.0,0.0,0.0,0.0,0.0
1583762886576202678,408,1583762886403756910,imu,-0.0208740383387,0.00292968959548,0.711143268585,0.703047119009,0.0,0.0,0.0,0.0,0.0,0.0,0.0,0.0,0.0,0.0,0.0,0.0,0.0,0.0,0.0,0.0,0.0,0.0,0.0,0.0,0.0,0.0,0.0,-0.0273437593132,0.0,0.0,0.0,0.0,0.0,0.0,0.0,0.0,0.0
1583762886676508726,409,1583762886503756910,imu,-0.0209350734949,0.00292968959548,0.711138528187,0.703051913964,0.0,0.0,0.0,0.0,0.0,0.0,0.0,0.0,0.0,0.0,0.0,0.0,0.0,0.0,0.0,0.0,0.0,0.0,0.0,0.0,0.0,0.0,0.0,-0.0195312574506,0.0,0.0,0.0,0.0,0.0,0.0,0.0,0.0,0.0
1583762886776276695,410,1583762886603756910,imu,-0.0209350734949,0.00292968959548,0.711138528187,0.703051913964,0.0,0.0,0.0,0.0,0.0,0.0,0.0,0.0,0.0,0.0,0.0,0.0,0.0,0.0,0.0,0.0,0.0,0.0,0.0,0.0,0.0,0.0,0.0,0.0195312574506,0.0,0.0,0.0,0.0,0.0,0.0,0.0,0.0,0.0
1583762886876374202,411,1583762886703756910,imu,-0.0208740383387,0.00292968959548,0.71114295501,0.703047436195,0.0,0.0,0.0,0.0,0.0,0.0,0.0,0.0,0.0,0.0,0.0,0.0,0.0,0.0,0.0,0.0,0.0,0.0,0.0,0.0,0.0,0.0,0.0,0.0117187537253,0.0,0.0,0.0,0.0,0.0,0.0,0.0,0.0,0.0
1583762886976051660,412,1583762886804756910,imu,-0.0209350734949,0.00292968959548,0.711138212736,0.703052233043,0.0,0.0,0.0,0.0,0.0,0.0,0.0,0.0,0.0,0.0,0.0,0.0,0.0,0.0,0.0,0.0,0.0,0.0,0.0,0.0,0.0,0.0,0.0,0.0117187537253,0.0,0.0,0.0,0.0,0.0,0.0,0.0,0.0,0.0
1583762887076347373,413,1583762886903756910,imu,-0.0209350734949,0.00292968959548,0.711138212736,0.703052233043,0.0,0.0,0.0,0.0,0.0,0.0,0.0,0.0,0.0,0.0,0.0,0.0,0.0,0.0,0.0,0.0,0.0,0.0,0.0,0.0,0.0,0.0,0.0,-0.0273437593132,0.0,0.0,0.0,0.0,0.0,0.0,0.0,0.0,0.0
1583762887177021485,414,1583762887003756910,imu,-0.0209961086512,0.00286865443923,0.711133127457,0.703057376772,0.0,0.0,0.0,0.0,0.0,0.0,0.0,0.0,0.0,0.0,0.0,0.0,0.0,0.0,0.0,0.0,0.0,0.0,0.0,0.0,0.0,0.0,0.0,0.0117187537253,0.0,0.0,0.0,0.0,0.0,0.0,0.0,0.0,0.0
1583762887276693108,415,1583762887106756910,imu,-0.0209961086512,0.00280761928298,0.711132494864,0.70305801663,0.0,0.0,0.0,0.0,0.0,0.0,0.0,0.0,0.0,0.0,0.0,0.0,0.0,0.0,0.0,0.0,0.0,0.0,0.0,0.0,0.0,-0.00781250279397,0.0,0.0117187537253,0.0,0.0,0.0,0.0,0.0,0.0,0.0,0.0,0.0
1583762887376095823,416,1583762887207924938,imu,-0.0209961086512,0.0027465838939,0.711131876121,0.703058642479,0.0,0.0,0.0,0.0,0.0,0.0,0.0,0.0,0.0,0.0,0.0,0.0,0.0,0.0,0.0,0.0,0.0,0.0,0.0,0.0,0.0,-0.00781250279397,0.0,-0.0195312574506,0.0,0.0,0.0,0.0,0.0,0.0,0.0,0.0,0.0
1583762887476362374,417,1583762887307924938,imu,-0.0209961086512,0.00280761928298,0.711132494864,0.70305801663,0.0,0.0,0.0,0.0,0.0,0.0,0.0,0.0,0.0,0.0,0.0,0.0,0.0,0.0,0.0,0.0,0.0,0.0,0.0,0.0,0.0,0.0,0.0,0.0195312574506,0.0,0.0,0.0,0.0,0.0,0.0,0.0,0.0,0.0
1583762887576885686,418,1583762887407924938,imu,-0.0209350734949,0.00280761928298,0.711137564731,0.7030528885,0.0,0.0,0.0,0.0,0.0,0.0,0.0,0.0,0.0,0.0,0.0,0.0,0.0,0.0,0.0,0.0,0.0,0.0,0.0,0.0,0.0,0.0,0.0,-0.0195312574506,0.0,0.0,0.0,0.0,0.0,0.0,0.0,0.0,0.0
1583762887676577421,419,1583762887507924938,imu,-0.0209350734949,0.00280761928298,0.711137564731,0.7030528885,0.0,0.0,0.0,0.0,0.0,0.0,0.0,0.0,0.0,0.0,0.0,0.0,0.0,0.0,0.0,0.0,0.0,0.0,0.0,0.0,0.0,-0.00781250279397,0.0,0.0195312574506,0.0,0.0,0.0,0.0,0.0,0.0,0.0,0.0,0.0
1583762887776070723,420,1583762887607924938,imu,-0.0209350734949,0.0027465838939,0.711137261954,0.703053194759,0.0,0.0,0.0,0.0,0.0,0.0,0.0,0.0,0.0,0.0,0.0,0.0,0.0,0.0,0.0,0.0,0.0,0.0,0.0,0.0,0.0,0.0,0.0,0.0117187537253,0.0,0.0,0.0,0.0,0.0,0.0,0.0,0.0,0.0
1583762887876523188,421,1583762887707924938,imu,-0.0209961086512,0.00280761928298,0.711133129961,0.703057374239,0.0,0.0,0.0,0.0,0.0,0.0,0.0,0.0,0.0,0.0,0.0,0.0,0.0,0.0,0.0,0.0,0.0,0.0,0.0,0.0,0.0,0.0,0.0,0.0117187537253,0.0,0.0,0.0,0.0,0.0,0.0,0.0,0.0,0.0
1583762887976546750,422,1583762887807924938,imu,-0.0209350734949,0.00280761928298,0.711137880305,0.703052569297,0.0,0.0,0.0,0.0,0.0,0.0,0.0,0.0,0.0,0.0,0.0,0.0,0.0,0.0,0.0,0.0,0.0,0.0,0.0,0.0,0.0,0.0,0.0,0.00390625139698,0.0,0.0,0.0,0.0,0.0,0.0,0.0,0.0,0.0
1583762888076234570,423,1583762887906924938,imu,-0.0209350734949,0.00280761928298,0.711137880305,0.703052569297,0.0,0.0,0.0,0.0,0.0,0.0,0.0,0.0,0.0,0.0,0.0,0.0,0.0,0.0,0.0,0.0,0.0,0.0,0.0,0.0,0.0,0.0,0.0,0.00390625139698,0.0,0.0,0.0,0.0,0.0,0.0,0.0,0.0,0.0
1583762888176420123,424,1583762888008924938,imu,-0.0209350734949,0.00280761928298,0.711137880305,0.703052569297,0.0,0.0,0.0,0.0,0.0,0.0,0.0,0.0,0.0,0.0,0.0,0.0,0.0,0.0,0.0,0.0,0.0,0.0,0.0,0.0,0.0,0.0,0.0,0.00390625139698,0.0,0.0,0.0,0.0,0.0,0.0,0.0,0.0,0.0
1583762888276270161,425,1583762888107924938,imu,-0.0208740383387,0.00286865443923,0.711143249055,0.703047138763,0.0,0.0,0.0,0.0,0.0,0.0,0.0,0.0,0.0,0.0,0.0,0.0,0.0,0.0,0.0,0.0,0.0,0.0,0.0,0.0,0.0,0.0,0.0,0.0117187537253,0.0,0.0,0.0,0.0,0.0,0.0,0.0,0.0,0.0
1583762888376214260,426,1583762888208924938,imu,-0.0209350734949,0.00286865443923,0.711138512496,0.703051929835,0.0,0.0,0.0,0.0,0.0,0.0,0.0,0.0,0.0,0.0,0.0,0.0,0.0,0.0,0.0,0.0,0.0,0.0,0.0,0.0,0.0,0.0,0.0,-0.0273437593132,0.0,0.0,0.0,0.0,0.0,0.0,0.0,0.0,0.0
1583762888476283445,427,1583762888308924938,imu,-0.0209350734949,0.00280761928298,0.711138195693,0.703052250282,0.0,0.0,0.0,0.0,0.0,0.0,0.0,0.0,0.0,0.0,0.0,0.0,0.0,0.0,0.0,0.0,0.0,0.0,0.0,0.0,0.0,-0.00781250279397,0.0,0.0195312574506,0.0,0.0,0.0,0.0,0.0,0.0,0.0,0.0,0.0
1583762888576046440,428,1583762888407924938,imu,-0.0208740383387,0.0027465838939,0.711142312089,0.703048086518,0.0,0.0,0.0,0.0,0.0,0.0,0.0,0.0,0.0,0.0,0.0,0.0,0.0,0.0,0.0,0.0,0.0,0.0,0.0,0.0,0.0,0.0,-0.00781250279397,-0.0195312574506,0.0,0.0,0.0,0.0,0.0,0.0,0.0,0.0,0.0
1583762888676304526,429,1583762888507924938,imu,-0.0208130031824,0.00268554873765,0.711146116156,0.703044238634,0.0,0.0,0.0,0.0,0.0,0.0,0.0,0.0,0.0,0.0,0.0,0.0,0.0,0.0,0.0,0.0,0.0,0.0,0.0,0.0,0.0,0.0,-0.00781250279397,0.0195312574506,0.0,0.0,0.0,0.0,0.0,0.0,0.0,0.0,0.0
1583762888776269037,430,1583762888607924938,imu,-0.0206909328699,0.00268554873765,0.711155519378,0.703034726922,0.0,0.0,0.0,0.0,0.0,0.0,0.0,0.0,0.0,0.0,0.0,0.0,0.0,0.0,0.0,0.0,0.0,0.0,0.0,0.0,0.0,0.0,-0.00781250279397,0.0117187537253,0.0,0.0,0.0,0.0,0.0,0.0,0.0,0.0,0.0
1583762888876402340,431,1583762888707924938,imu,-0.0207519680262,0.0026245135814,0.711150233768,0.703040073546,0.0,0.0,0.0,0.0,0.0,0.0,0.0,0.0,0.0,0.0,0.0,0.0,0.0,0.0,0.0,0.0,0.0,0.0,0.0,0.0,0.0,0.0,0.0,-0.0273437593132,0.0,0.0,0.0,0.0,0.0,0.0,0.0,0.0,0.0
