%time,field.header.seq,field.header.stamp,field.header.frame_id,field.orientation.x,field.orientation.y,field.orientation.z,field.orientation.w,field.orientation_covariance0,field.orientation_covariance1,field.orientation_covariance2,field.orientation_covariance3,field.orientation_covariance4,field.orientation_covariance5,field.orientation_covariance6,field.orientation_covariance7,field.orientation_covariance8,field.angular_velocity.x,field.angular_velocity.y,field.angular_velocity.z,field.angular_velocity_covariance0,field.angular_velocity_covariance1,field.angular_velocity_covariance2,field.angular_velocity_covariance3,field.angular_velocity_covariance4,field.angular_velocity_covariance5,field.angular_velocity_covariance6,field.angular_velocity_covariance7,field.angular_velocity_covariance8,field.linear_acceleration.x,field.linear_acceleration.y,field.linear_acceleration.z,field.linear_acceleration_covariance0,field.linear_acceleration_covariance1,field.linear_acceleration_covariance2,field.linear_acceleration_covariance3,field.linear_acceleration_covariance4,field.linear_acceleration_covariance5,field.linear_acceleration_covariance6,field.linear_acceleration_covariance7,field.linear_acceleration_covariance8
1583762851049189124,449,1583762846029366024,imu,-0.0187988411635,-0.00427246419713,-6.10351999057e-05,0.999817609787,0.0,0.0,0.0,0.0,0.0,0.0,0.0,0.0,0.0,0.0,0.0,0.0,0.0,0.0,0.0,0.0,0.0,0.0,0.0,0.0,0.0,0.0,0.0,0.0117187537253,0.0,0.0,0.0,0.0,0.0,0.0,0.0,0.0,0.0
1583762851049209460,450,1583762846088366024,imu,-0.0188598763198,-0.00421142857522,-6.10351999057e-05,0.999817609787,0.0,0.0,0.0,0.0,0.0,0.0,0.0,0.0,0.0,0.0,0.0,0.0,0.0,0.0,0.0,0.0,0.0,0.0,0.0,0.0,0.0,0.0,0.0,0.0117187537253,0.0,0.0,0.0,0.0,0.0,0.0,0.0,0.0,0.0
1583762851049222903,451,1583762846128366024,imu,-0.0188598763198,-0.00421142857522,-6.10351999057e-05,0.999817609787,0.0,0.0,0.0,0.0,0.0,0.0,0.0,0.0,0.0,0.0,0.0,0.0,0.0,0.0,0.0,0.0,0.0,0.0,0.0,0.0,0.0,0.0,0.0,-0.0195312574506,0.0,0.0,0.0,0.0,0.0,0.0,0.0,0.0,0.0
1583762851049246741,452,1583762846189366024,imu,-0.018920911476,-0.00415039341897,0.0,0.999817609787,0.0,0.0,0.0,0.0,0.0,0.0,0.0,0.0,0.0,0.0,0.0,0.0,0.0,0.0,0.0,0.0,0.0,0.0,0.0,0.0,0.0,0.0,0.0,-0.0195312574506,0.0,0.0,0.0,0.0,0.0,0.0,0.0,0.0,0.0
1583762851049263406,453,1583762846229366024,imu,-0.018920911476,-0.00415039341897,0.0,0.999817609787,0.0,0.0,0.0,0.0,0.0,0.0,0.0,0.0,0.0,0.0,0.0,0.0,0.0,0.0,0.0,0.0,0.0,0.0,0.0,0.0,0.0,0.0,0.0,0.0195312574506,0.0,0.0,0.0,0.0,0.0,0.0,0.0,0.0,0.0
1583762851049290581,454,1583762846289366024,imu,-0.018920911476,-0.00408935826272,-6.10351999057e-05,0.999817609787,0.0,0.0,0.0,0.0,0.0,0.0,0.0,0.0,0.0,0.0,0.0,0.0,0.0,0.0,0.0,0.0,0.0,0.0,0.0,0.0,0.0,0.0,0.0,0.0195312574506,0.0,0.0,0.0,0.0,0.0,0.0,0.0,0.0,0.0
1583762851049306898,455,1583762846329366024,imu,-0.018920911476,-0.00408935826272,-6.10351999057e-05,0.999817609787,0.0,0.0,0.0,0.0,0.0,0.0,0.0,0.0,0.0,0.0,0.0,0.0,0.0,0.0,0.0,0.0,0.0,0.0,0.0,0.0,0.0,0.0,0.0,0.0117187537253,0.0,0.0,0.0,0.0,0.0,0.0,0.0,0.0,0.0
1583762851049342940,456,1583762846389366024,imu,-0.018920911476,-0.00408935826272,-6.10351999057e-05,0.999817609787,0.0,0.0,0.0,0.0,0.0,0.0,0.0,0.0,0.0,0.0,0.0,0.0,0.0,0.0,0.0,0.0,0.0,0.0,0.0,0.0,0.0,0.0,0.0,0.0117187537253,0.0,0.0,0.0,0.0,0.0,0.0,0.0,0.0,0.0
1583762851049352434,457,1583762846434629114,imu,-0.018920911476,-0.00408935826272,-6.10351999057e-05,0.999817609787,0.0,0.0,0.0,0.0,0.0,0.0,0.0,0.0,0.0,0.0,0.0,0.0,0.0,0.0,0.0,0.0,0.0,0.0,0.0,0.0,0.0,0.0,0.0,0.0117187537253,0.0,0.0,0.0,0.0,0.0,0.0,0.0,0.0,0.0
1583762851049369508,458,1583762846493629114,imu,-0.018920911476,-0.00408935826272,-0.000122070399811,0.999817609787,0.0,0.0,0.0,0.0,0.0,0.0,0.0,0.0,0.0,0.0,0.0,0.0,0.0,0.0,0.0,0.0,0.0,0.0,0.0,0.0,0.0,0.0,0.0,0.0117187537253,0.0,0.0,0.0,0.0,0.0,0.0,0.0,0.0,0.0
1583762851049389394,459,1583762846533629114,imu,-0.018920911476,-0.00408935826272,-0.000122070399811,0.999817609787,0.0,0.0,0.0,0.0,0.0,0.0,0.0,0.0,0.0,0.0,0.0,0.0,0.0,0.0,0.0,0.0,0.0,0.0,0.0,0.0,0.0,0.0351562611759,0.0,0.00390625139698,0.0,0.0,0.0,0.0,0.0,0.0,0.0,0.0,0.0
1583762851049400919,460,1583762846592629114,imu,-0.0188598763198,-0.00408935826272,-0.000122070399811,0.999817609787,0.0,0.0,0.0,0.0,0.0,0.0,0.0,0.0,0.0,0.0,0.0,0.0,0.0,0.0,0.0,0.0,0.0,0.0,0.0,0.0,0.0,0.0351562611759,0.0,0.00390625139698,0.0,0.0,0.0,0.0,0.0,0.0,0.0,0.0,0.0
1583762851049416927,461,1583762846632629114,imu,-0.0188598763198,-0.00408935826272,-0.000122070399811,0.999817609787,0.0,0.0,0.0,0.0,0.0,0.0,0.0,0.0,0.0,0.0,0.0,0.0,0.0,0.0,0.0,0.0,0.0,0.0,0.0,0.0,0.0,0.0273437593132,0.0,0.00390625139698,0.0,0.0,0.0,0.0,0.0,0.0,0.0,0.0,0.0
1583762851049432654,462,1583762846693629114,imu,-0.0188598763198,-0.00408935826272,-0.000183105599717,0.999817609787,0.0,0.0,0.0,0.0,0.0,0.0,0.0,0.0,0.0,0.0,0.0,0.0,0.0,0.0,0.0,0.0,0.0,0.0,0.0,0.0,0.0,0.0273437593132,0.0,0.00390625139698,0.0,0.0,0.0,0.0,0.0,0.0,0.0,0.0,0.0
1583762851049454120,463,1583762846733629114,imu,-0.0188598763198,-0.00408935826272,-0.000183105599717,0.999817609787,0.0,0.0,0.0,0.0,0.0,0.0,0.0,0.0,0.0,0.0,0.0,0.0,0.0,0.0,0.0,0.0,0.0,0.0,0.0,0.0,0.0,-0.0156250055879,0.0,0.00390625139698,0.0,0.0,0.0,0.0,0.0,0.0,0.0,0.0,0.0
1583762851049474397,464,1583762846793629114,imu,-0.0188598763198,-0.00415039341897,-0.000122070399811,0.999817609787,0.0,0.0,0.0,0.0,0.0,0.0,0.0,0.0,0.0,0.0,0.0,0.0,0.0,0.0,0.0,0.0,0.0,0.0,0.0,0.0,0.0,-0.0156250055879,0.0,0.00390625139698,0.0,0.0,0.0,0.0,0.0,0.0,0.0,0.0,0.0
1583762851049483327,465,1583762846833629114,imu,-0.0188598763198,-0.00415039341897,-0.000122070399811,0.999817609787,0.0,0.0,0.0,0.0,0.0,0.0,0.0,0.0,0.0,0.0,0.0,0.0,0.0,0.0,0.0,0.0,0.0,0.0,0.0,0.0,0.0,-0.00781250279397,-0.0390625149012,0.00390625139698,0.0,0.0,0.0,0.0,0.0,0.0,0.0,0.0,0.0
1583762851049497692,466,1583762846893629114,imu,-0.0188598763198,-0.00421142857522,-0.000732422398869,0.999817609787,0.0,0.0,0.0,0.0,0.0,0.0,0.0,0.0,0.0,0.0,0.0,0.0,0.0,0.0,0.0,0.0,0.0,0.0,0.0,0.0,0.0,-0.00781250279397,-0.0390625149012,0.00390625139698,0.0,0.0,0.0,0.0,0.0,0.0,0.0,0.0,0.0
1583762851049523225,467,1583762846933629114,imu,-0.0188598763198,-0.00421142857522,-0.000732422398869,0.999817609787,0.0,0.0,0.0,0.0,0.0,0.0,0.0,0.0,0.0,0.0,0.0,0.0,0.0,0.0,0.0,0.0,0.0,0.0,0.0,0.0,0.0,-0.0468750149012,0.191406324506,0.00390625139698,0.0,0.0,0.0,0.0,0.0,0.0,0.0,0.0,0.0
1583762851049546335,468,1583762846992629114,imu,-0.0187378060073,-0.00415039341897,-0.000915527984034,0.999817609787,0.0,0.0,0.0,0.0,0.0,0.0,0.0,0.0,0.0,0.0,0.0,0.0,0.0,0.0,0.0,0.0,0.0,0.0,0.0,0.0,0.0,-0.0468750149012,0.191406324506,0.00390625139698,0.0,0.0,0.0,0.0,0.0,0.0,0.0,0.0,0.0
1583762851049558771,469,1583762847032629114,imu,-0.0187378060073,-0.00415039341897,-0.000915527984034,0.999817609787,0.0,0.0,0.0,0.0,0.0,0.0,0.0,0.0,0.0,0.0,0.0,0.0,0.0,0.0,0.0,0.0,0.0,0.0,0.0,0.0,0.0,-0.0546875186265,0.0156250055879,-0.00390625139698,0.0,0.0,0.0,0.0,0.0,0.0,0.0,0.0,0.0
1583762851049899953,470,1583762847092629114,imu,-0.0183715950698,-0.00421142857522,-0.00122070405632,0.999817609787,0.0,0.0,0.0,0.0,0.0,0.0,0.0,0.0,0.0,0.0,0.0,0.0,0.0,0.0,0.0,0.0,0.0,0.0,0.0,0.0,0.0,-0.0546875186265,0.0156250055879,-0.00390625139698,0.0,0.0,0.0,0.0,0.0,0.0,0.0,0.0,0.0
1583762851050150571,471,1583762847132629114,imu,-0.0183715950698,-0.00421142857522,-0.00122070405632,0.999817609787,0.0,0.0,0.0,0.0,0.0,0.0,0.0,0.0,0.0,0.0,0.0,0.0,0.0,0.0,0.0,0.0,0.0,0.0,0.0,0.0,0.0,0.0195312574506,0.128906294703,-0.00390625139698,0.0,0.0,0.0,0.0,0.0,0.0,0.0,0.0,0.0
1583762851050231149,472,1583762847193629114,imu,-0.0178222786635,-0.00433349935338,-0.00152587995399,0.999817609787,0.0,0.0,0.0,0.0,0.0,0.0,0.0,0.0,0.0,0.0,0.0,0.0,0.0,0.0,0.0,0.0,0.0,0.0,0.0,0.0,0.0,0.0195312574506,0.128906294703,-0.00390625139698,0.0,0.0,0.0,0.0,0.0,0.0,0.0,0.0,0.0
1583762851050280623,473,1583762847233629114,imu,-0.0178222786635,-0.00433349935338,-0.00152587995399,0.999817609787,0.0,0.0,0.0,0.0,0.0,0.0,0.0,0.0,0.0,0.0,0.0,0.0,0.0,0.0,0.0,0.0,0.0,0.0,0.0,0.0,0.0,0.0195312574506,0.0585937723517,-0.00390625139698,0.0,0.0,0.0,0.0,0.0,0.0,0.0,0.0,0.0
1583762851050424408,474,1583762847293629114,imu,-0.0172729622573,-0.00427246419713,-0.00177002081182,0.999817609787,0.0,0.0,0.0,0.0,0.0,0.0,0.0,0.0,0.0,0.0,0.0,0.0,0.0,0.0,0.0,0.0,0.0,0.0,0.0,0.0,0.0,0.0195312574506,0.0585937723517,-0.00390625139698,0.0,0.0,0.0,0.0,0.0,0.0,0.0,0.0,0.0
1583762851050431666,475,1583762847333629114,imu,-0.0172729622573,-0.00427246419713,-0.00177002081182,0.999817609787,0.0,0.0,0.0,0.0,0.0,0.0,0.0,0.0,0.0,0.0,0.0,0.0,0.0,0.0,0.0,0.0,0.0,0.0,0.0,0.0,0.0,0.0117187537253,-0.0273437593132,0.00390625139698,0.0,0.0,0.0,0.0,0.0,0.0,0.0,0.0,0.0
1583762851050480563,476,1583762847393629114,imu,-0.0167236439884,-0.00439453450963,-0.00238037272356,0.999817609787,0.0,0.0,0.0,0.0,0.0,0.0,0.0,0.0,0.0,0.0,0.0,0.0,0.0,0.0,0.0,0.0,0.0,0.0,0.0,0.0,0.0,0.0117187537253,-0.0273437593132,0.00390625139698,0.0,0.0,0.0,0.0,0.0,0.0,0.0,0.0,0.0
1583762851050490726,477,1583762847434629114,imu,-0.0167236439884,-0.00439453450963,-0.00238037272356,0.999817609787,0.0,0.0,0.0,0.0,0.0,0.0,0.0,0.0,0.0,0.0,0.0,0.0,0.0,0.0,0.0,0.0,0.0,0.0,0.0,0.0,0.0,0.0117187537253,0.0351562611759,0.101562537253,0.0,0.0,0.0,0.0,0.0,0.0,0.0,0.0,0.0
1583762851050654207,478,1583762847493629114,imu,-0.0161743275821,-0.00427246419713,-0.00268554873765,0.999878644943,0.0,0.0,0.0,0.0,0.0,0.0,0.0,0.0,0.0,0.0,0.0,0.0,0.0,0.0,0.0,0.0,0.0,0.0,0.0,0.0,0.0,0.0117187537253,0.0351562611759,0.101562537253,0.0,0.0,0.0,0.0,0.0,0.0,0.0,0.0,0.0
1583762851050742950,479,1583762847533629114,imu,-0.0161743275821,-0.00427246419713,-0.00268554873765,0.999878644943,0.0,0.0,0.0,0.0,0.0,0.0,0.0,0.0,0.0,0.0,0.0,0.0,0.0,0.0,0.0,0.0,0.0,0.0,0.0,0.0,0.0,0.0117187537253,-0.00390625139698,0.0468750149012,0.0,0.0,0.0,0.0,0.0,0.0,0.0,0.0,0.0
1583762851050940256,480,1583762847592629114,imu,-0.0155639760196,-0.00451660482213,-0.00323486560956,0.999878644943,0.0,0.0,0.0,0.0,0.0,0.0,0.0,0.0,0.0,0.0,0.0,0.0,0.0,0.0,0.0,0.0,0.0,0.0,0.0,0.0,0.0,0.0117187537253,-0.00390625139698,0.0468750149012,0.0,0.0,0.0,0.0,0.0,0.0,0.0,0.0,0.0
1583762851050959366,481,1583762847632629114,imu,-0.0155639760196,-0.00451660482213,-0.00323486560956,0.999878644943,0.0,0.0,0.0,0.0,0.0,0.0,0.0,0.0,0.0,0.0,0.0,0.0,0.0,0.0,0.0,0.0,0.0,0.0,0.0,0.0,0.0,-0.0312500111759,0.0664062723517,-0.0273437593132,0.0,0.0,0.0,0.0,0.0,0.0,0.0,0.0,0.0
1583762851050969785,482,1583762847693629114,imu,-0.0151367299259,-0.00476074544713,-0.00372314709239,0.999878644943,0.0,0.0,0.0,0.0,0.0,0.0,0.0,0.0,0.0,0.0,0.0,0.0,0.0,0.0,0.0,0.0,0.0,0.0,0.0,0.0,0.0,-0.0312500111759,0.0664062723517,-0.0273437593132,0.0,0.0,0.0,0.0,0.0,0.0,0.0,0.0,0.0
1583762851051098259,483,1583762847733629114,imu,-0.0151367299259,-0.00476074544713,-0.00372314709239,0.999878644943,0.0,0.0,0.0,0.0,0.0,0.0,0.0,0.0,0.0,0.0,0.0,0.0,0.0,0.0,0.0,0.0,0.0,0.0,0.0,0.0,0.0,-0.101562537253,0.0195312574506,-0.0117187537253,0.0,0.0,0.0,0.0,0.0,0.0,0.0,0.0,0.0
1583762851051159168,484,1583762847792629114,imu,-0.0147094829008,-0.00463867513463,-0.00421142857522,0.999878644943,0.0,0.0,0.0,0.0,0.0,0.0,0.0,0.0,0.0,0.0,0.0,0.0,0.0,0.0,0.0,0.0,0.0,0.0,0.0,0.0,0.0,-0.101562537253,0.0195312574506,-0.0117187537253,0.0,0.0,0.0,0.0,0.0,0.0,0.0,0.0,0.0
1583762851051463385,485,1583762847832629114,imu,-0.0147094829008,-0.00463867513463,-0.00421142857522,0.999878644943,0.0,0.0,0.0,0.0,0.0,0.0,0.0,0.0,0.0,0.0,0.0,0.0,0.0,0.0,0.0,0.0,0.0,0.0,0.0,0.0,0.0,-0.0156250055879,0.0585937723517,0.117187544703,0.0,0.0,0.0,0.0,0.0,0.0,0.0,0.0,0.0
1583762851051589397,486,1583762847892629114,imu,-0.0146484477445,-0.00476074544713,-0.00457763997838,0.999878644943,0.0,0.0,0.0,0.0,0.0,0.0,0.0,0.0,0.0,0.0,0.0,0.0,0.0,0.0,0.0,0.0,0.0,0.0,0.0,0.0,0.0,-0.0156250055879,0.0585937723517,0.117187544703,0.0,0.0,0.0,0.0,0.0,0.0,0.0,0.0,0.0
1583762851051711705,487,1583762847932629114,imu,-0.0146484477445,-0.00476074544713,-0.00457763997838,0.999878644943,0.0,0.0,0.0,0.0,0.0,0.0,0.0,0.0,0.0,0.0,0.0,0.0,0.0,0.0,0.0,0.0,0.0,0.0,0.0,0.0,0.0,0.0976562872529,-0.0507812686265,-0.0507812686265,0.0,0.0,0.0,0.0,0.0,0.0,0.0,0.0,0.0
1583762851051721450,488,1583762847993629114,imu,-0.0145874125883,-0.00506592169404,-0.00469971029088,0.999878644943,0.0,0.0,0.0,0.0,0.0,0.0,0.0,0.0,0.0,0.0,0.0,0.0,0.0,0.0,0.0,0.0,0.0,0.0,0.0,0.0,0.0,0.0976562872529,-0.0507812686265,-0.0507812686265,0.0,0.0,0.0,0.0,0.0,0.0,0.0,0.0,0.0
1583762851051829094,489,1583762848033629114,imu,-0.0145874125883,-0.00506592169404,-0.00469971029088,0.999878644943,0.0,0.0,0.0,0.0,0.0,0.0,0.0,0.0,0.0,0.0,0.0,0.0,0.0,0.0,0.0,0.0,0.0,0.0,0.0,0.0,0.0,-0.0312500111759,-0.132812544703,-0.00390625139698,0.0,0.0,0.0,0.0,0.0,0.0,0.0,0.0,0.0
1583762851052219468,490,1583762848092629114,imu,-0.0151977650821,-0.00488281622529,-0.00451660482213,0.999878644943,0.0,0.0,0.0,0.0,0.0,0.0,0.0,0.0,0.0,0.0,0.0,0.0,0.0,0.0,0.0,0.0,0.0,0.0,0.0,0.0,0.0,-0.0312500111759,-0.132812544703,-0.00390625139698,0.0,0.0,0.0,0.0,0.0,0.0,0.0,0.0,0.0
1583762851052651460,491,1583762848132629114,imu,-0.0151977650821,-0.00488281622529,-0.00451660482213,0.999878644943,0.0,0.0,0.0,0.0,0.0,0.0,0.0,0.0,0.0,0.0,0.0,0.0,0.0,0.0,0.0,0.0,0.0,0.0,0.0,0.0,0.0,0.0507812686265,-0.140625044703,-0.0351562611759,0.0,0.0,0.0,0.0,0.0,0.0,0.0,0.0,0.0
1583762851055734342,492,1583762848194629114,imu,-0.0155029408634,-0.00469971029088,-0.00469971029088,0.999878644943,0.0,0.0,0.0,0.0,0.0,0.0,0.0,0.0,0.0,0.0,0.0,0.0,0.0,0.0,0.0,0.0,0.0,0.0,0.0,0.0,0.0,0.0507812686265,-0.140625044703,-0.0351562611759,0.0,0.0,0.0,0.0,0.0,0.0,0.0,0.0,0.0
1583762851055745150,493,1583762848233629114,imu,-0.0155029408634,-0.00469971029088,-0.00469971029088,0.999878644943,0.0,0.0,0.0,0.0,0.0,0.0,0.0,0.0,0.0,0.0,0.0,0.0,0.0,0.0,0.0,0.0,0.0,0.0,0.0,0.0,0.0,-0.0625000223517,-0.0859375298023,0.00390625139698,0.0,0.0,0.0,0.0,0.0,0.0,0.0,0.0,0.0
1583762851055774782,494,1583762848293629114,imu,-0.0161132924259,-0.00439453450963,-0.00482178060338,0.999878644943,0.0,0.0,0.0,0.0,0.0,0.0,0.0,0.0,0.0,0.0,0.0,0.0,0.0,0.0,0.0,0.0,0.0,0.0,0.0,0.0,0.0,-0.0625000223517,-0.0859375298023,0.00390625139698,0.0,0.0,0.0,0.0,0.0,0.0,0.0,0.0,0.0
1583762851056291333,495,1583762848332629114,imu,-0.0161132924259,-0.00439453450963,-0.00482178060338,0.999878644943,0.0,0.0,0.0,0.0,0.0,0.0,0.0,0.0,0.0,0.0,0.0,0.0,0.0,0.0,0.0,0.0,0.0,0.0,0.0,0.0,0.0,-0.0546875186265,-0.0625000223517,0.00390625139698,0.0,0.0,0.0,0.0,0.0,0.0,0.0,0.0,0.0
1583762851056325463,496,1583762848392629114,imu,-0.0168457143009,-0.00421142857522,-0.00500488653779,0.999817609787,0.0,0.0,0.0,0.0,0.0,0.0,0.0,0.0,0.0,0.0,0.0,0.0,0.0,0.0,0.0,0.0,0.0,0.0,0.0,0.0,0.0,-0.0546875186265,-0.0625000223517,0.00390625139698,0.0,0.0,0.0,0.0,0.0,0.0,0.0,0.0,0.0
1583762851056336598,497,1583762848432629114,imu,-0.0168457143009,-0.00421142857522,-0.00500488653779,0.999817609787,0.0,0.0,0.0,0.0,0.0,0.0,0.0,0.0,0.0,0.0,0.0,0.0,0.0,0.0,0.0,0.0,0.0,0.0,0.0,0.0,0.0,0.0273437593132,0.00781250279397,0.0117187537253,0.0,0.0,0.0,0.0,0.0,0.0,0.0,0.0,0.0
1583762851056359721,498,1583762848493629114,imu,-0.0175171028823,-0.00390625279397,-0.00500488653779,0.999817609787,0.0,0.0,0.0,0.0,0.0,0.0,0.0,0.0,0.0,0.0,0.0,0.0,0.0,0.0,0.0,0.0,0.0,0.0,0.0,0.0,0.0,0.0273437593132,0.00781250279397,0.0117187537253,0.0,0.0,0.0,0.0,0.0,0.0,0.0,0.0,0.0
1583762851056560664,499,1583762848532629114,imu,-0.0175171028823,-0.00390625279397,-0.00500488653779,0.999817609787,0.0,0.0,0.0,0.0,0.0,0.0,0.0,0.0,0.0,0.0,0.0,0.0,0.0,0.0,0.0,0.0,0.0,0.0,0.0,0.0,0.0,-0.00781250279397,0.0156250055879,0.00390625139698,0.0,0.0,0.0,0.0,0.0,0.0,0.0,0.0,0.0
1583762851056587886,500,1583762848593629114,imu,-0.017700208351,-0.00445556966588,-0.00524902716279,0.999817609787,0.0,0.0,0.0,0.0,0.0,0.0,0.0,0.0,0.0,0.0,0.0,0.0,0.0,0.0,0.0,0.0,0.0,0.0,0.0,0.0,0.0,-0.00781250279397,0.0156250055879,0.00390625139698,0.0,0.0,0.0,0.0,0.0,0.0,0.0,0.0,0.0
1583762851056596936,501,1583762848634629114,imu,-0.017700208351,-0.00445556966588,-0.00524902716279,0.999817609787,0.0,0.0,0.0,0.0,0.0,0.0,0.0,0.0,0.0,0.0,0.0,0.0,0.0,0.0,0.0,0.0,0.0,0.0,0.0,0.0,0.0,-0.0546875186265,-0.0234375074506,-0.0351562611759,0.0,0.0,0.0,0.0,0.0,0.0,0.0,0.0,0.0
1583762851056622608,502,1583762848693629114,imu,-0.0185547005385,-0.00433349935338,-0.00518799200654,0.999817609787,0.0,0.0,0.0,0.0,0.0,0.0,0.0,0.0,0.0,0.0,0.0,0.0,0.0,0.0,0.0,0.0,0.0,0.0,0.0,0.0,0.0,-0.0546875186265,-0.0234375074506,-0.0351562611759,0.0,0.0,0.0,0.0,0.0,0.0,0.0,0.0,0.0
1583762851056639132,503,1583762848733629114,imu,-0.0185547005385,-0.00433349935338,-0.00518799200654,0.999817609787,0.0,0.0,0.0,0.0,0.0,0.0,0.0,0.0,0.0,0.0,0.0,0.0,0.0,0.0,0.0,0.0,0.0,0.0,0.0,0.0,0.0,-0.0546875186265,-0.00781250279397,0.0351562611759,0.0,0.0,0.0,0.0,0.0,0.0,0.0,0.0,0.0
1583762851056667199,504,1583762848793629114,imu,-0.018920911476,-0.00439453450963,-0.00531006231904,0.999817609787,0.0,0.0,0.0,0.0,0.0,0.0,0.0,0.0,0.0,0.0,0.0,0.0,0.0,0.0,0.0,0.0,0.0,0.0,0.0,0.0,0.0,-0.0546875186265,-0.00781250279397,0.0351562611759,0.0,0.0,0.0,0.0,0.0,0.0,0.0,0.0,0.0
1583762851056930911,505,1583762848832629114,imu,-0.018920911476,-0.00439453450963,-0.00531006231904,0.999817609787,0.0,0.0,0.0,0.0,0.0,0.0,0.0,0.0,0.0,0.0,0.0,0.0,0.0,0.0,0.0,0.0,0.0,0.0,0.0,0.0,0.0,-0.0156250055879,-0.0351562611759,0.0625000223517,0.0,0.0,0.0,0.0,0.0,0.0,0.0,0.0,0.0
1583762851056947816,506,1583762848892629114,imu,-0.0194702278823,-0.00451660482213,-0.00531006231904,0.999756574631,0.0,0.0,0.0,0.0,0.0,0.0,0.0,0.0,0.0,0.0,0.0,0.0,0.0,0.0,0.0,0.0,0.0,0.0,0.0,0.0,0.0,-0.0156250055879,-0.0351562611759,0.0625000223517,0.0,0.0,0.0,0.0,0.0,0.0,0.0,0.0,0.0
1583762851056958507,507,1583762848935629114,imu,-0.0194702278823,-0.00451660482213,-0.00531006231904,0.999756574631,0.0,0.0,0.0,0.0,0.0,0.0,0.0,0.0,0.0,0.0,0.0,0.0,0.0,0.0,0.0,0.0,0.0,0.0,0.0,0.0,0.0,-0.0156250055879,0.0781250298023,-0.0195312574506,0.0,0.0,0.0,0.0,0.0,0.0,0.0,0.0,0.0
1583762851056976070,508,1583762848999294006,imu,-0.0198974758387,-0.00469971029088,-0.00537109747529,0.999756574631,0.0,0.0,0.0,0.0,0.0,0.0,0.0,0.0,0.0,0.0,0.0,0.0,0.0,0.0,0.0,0.0,0.0,0.0,0.0,0.0,0.0,-0.0156250055879,0.0781250298023,-0.0195312574506,0.0,0.0,0.0,0.0,0.0,0.0,0.0,0.0,0.0
1583762851057024861,509,1583762849039294006,imu,-0.0198974758387,-0.00469971029088,-0.00537109747529,0.999756574631,0.0,0.0,0.0,0.0,0.0,0.0,0.0,0.0,0.0,0.0,0.0,0.0,0.0,0.0,0.0,0.0,0.0,0.0,0.0,0.0,0.0,0.0117187537253,0.00781250279397,0.0273437593132,0.0,0.0,0.0,0.0,0.0,0.0,0.0,0.0,0.0
1583762851057043255,510,1583762849099294006,imu,-0.0205688625574,-0.00482178060338,-0.00524902716279,0.999756574631,0.0,0.0,0.0,0.0,0.0,0.0,0.0,0.0,0.0,0.0,0.0,0.0,0.0,0.0,0.0,0.0,0.0,0.0,0.0,0.0,0.0,0.0117187537253,0.00781250279397,0.0273437593132,0.0,0.0,0.0,0.0,0.0,0.0,0.0,0.0,0.0
1583762851057059186,511,1583762849139294006,imu,-0.0205688625574,-0.00482178060338,-0.00524902716279,0.999756574631,0.0,0.0,0.0,0.0,0.0,0.0,0.0,0.0,0.0,0.0,0.0,0.0,0.0,0.0,0.0,0.0,0.0,0.0,0.0,0.0,0.0,0.0117187537253,-0.0195312574506,-0.0507812686265,0.0,0.0,0.0,0.0,0.0,0.0,0.0,0.0,0.0
1583762851057076880,512,1583762849199294006,imu,-0.0211181789637,-0.00488281622529,-0.00543213263154,0.999756574631,0.0,0.0,0.0,0.0,0.0,0.0,0.0,0.0,0.0,0.0,0.0,0.0,0.0,0.0,0.0,0.0,0.0,0.0,0.0,0.0,0.0,0.0117187537253,-0.0195312574506,-0.0507812686265,0.0,0.0,0.0,0.0,0.0,0.0,0.0,0.0,0.0
1583762851057095368,513,1583762849239294006,imu,-0.0211181789637,-0.00488281622529,-0.00543213263154,0.999756574631,0.0,0.0,0.0,0.0,0.0,0.0,0.0,0.0,0.0,0.0,0.0,0.0,0.0,0.0,0.0,0.0,0.0,0.0,0.0,0.0,0.0,0.0117187537253,-0.0117187537253,-0.0429687649012,0.0,0.0,0.0,0.0,0.0,0.0,0.0,0.0,0.0
1583762851057106078,514,1583762849298294006,imu,-0.0216064602137,-0.00524902716279,-0.00549316778779,0.999756574631,0.0,0.0,0.0,0.0,0.0,0.0,0.0,0.0,0.0,0.0,0.0,0.0,0.0,0.0,0.0,0.0,0.0,0.0,0.0,0.0,0.0,0.0117187537253,-0.0117187537253,-0.0429687649012,0.0,0.0,0.0,0.0,0.0,0.0,0.0,0.0,0.0
1583762851057113687,515,1583762849338294006,imu,-0.0216064602137,-0.00524902716279,-0.00549316778779,0.999756574631,0.0,0.0,0.0,0.0,0.0,0.0,0.0,0.0,0.0,0.0,0.0,0.0,0.0,0.0,0.0,0.0,0.0,0.0,0.0,0.0,0.0,0.0429687649012,-0.0507812686265,-0.0351562611759,0.0,0.0,0.0,0.0,0.0,0.0,0.0,0.0,0.0
1583762851057141821,516,1583762849399294006,imu,-0.0223999191076,-0.00476074544713,-0.00543213263154,0.999695539474,0.0,0.0,0.0,0.0,0.0,0.0,0.0,0.0,0.0,0.0,0.0,0.0,0.0,0.0,0.0,0.0,0.0,0.0,0.0,0.0,0.0,0.0429687649012,-0.0507812686265,-0.0351562611759,0.0,0.0,0.0,0.0,0.0,0.0,0.0,0.0,0.0
1583762851057170573,517,1583762849440294006,imu,-0.0223999191076,-0.00476074544713,-0.00543213263154,0.999695539474,0.0,0.0,0.0,0.0,0.0,0.0,0.0,0.0,0.0,0.0,0.0,0.0,0.0,0.0,0.0,0.0,0.0,0.0,0.0,0.0,0.0,-0.0625000223517,0.0468750149012,-0.125000044703,0.0,0.0,0.0,0.0,0.0,0.0,0.0,0.0,0.0
1583762851057254871,518,1583762849499294006,imu,-0.0225219894201,-0.00494385138154,-0.00531006231904,0.999695539474,0.0,0.0,0.0,0.0,0.0,0.0,0.0,0.0,0.0,0.0,0.0,0.0,0.0,0.0,0.0,0.0,0.0,0.0,0.0,0.0,0.0,-0.0625000223517,0.0468750149012,-0.125000044703,0.0,0.0,0.0,0.0,0.0,0.0,0.0,0.0,0.0
1583762851057351219,519,1583762849538294006,imu,-0.0225219894201,-0.00494385138154,-0.00531006231904,0.999695539474,0.0,0.0,0.0,0.0,0.0,0.0,0.0,0.0,0.0,0.0,0.0,0.0,0.0,0.0,0.0,0.0,0.0,0.0,0.0,0.0,0.0,0.0195312574506,-0.0820312798023,-0.0273437593132,0.0,0.0,0.0,0.0,0.0,0.0,0.0,0.0,0.0
1583762851063479384,520,1583762849598294006,imu,-0.0231323409826,-0.00439453450963,-0.00549316778779,0.999695539474,0.0,0.0,0.0,0.0,0.0,0.0,0.0,0.0,0.0,0.0,0.0,0.0,0.0,0.0,0.0,0.0,0.0,0.0,0.0,0.0,0.0,0.0195312574506,-0.0820312798023,-0.0273437593132,0.0,0.0,0.0,0.0,0.0,0.0,0.0,0.0,0.0
1583762851063862352,521,1583762849638294006,imu,-0.0231323409826,-0.00439453450963,-0.00549316778779,0.999695539474,0.0,0.0,0.0,0.0,0.0,0.0,0.0,0.0,0.0,0.0,0.0,0.0,0.0,0.0,0.0,0.0,0.0,0.0,0.0,0.0,0.0,-0.0390625149012,0.117187544703,0.0507812686265,0.0,0.0,0.0,0.0,0.0,0.0,0.0,0.0,0.0
1583762851063873563,522,1583762849699294006,imu,-0.0236816573888,-0.00384521763772,-0.0055542034097,0.999695539474,0.0,0.0,0.0,0.0,0.0,0.0,0.0,0.0,0.0,0.0,0.0,0.0,0.0,0.0,0.0,0.0,0.0,0.0,0.0,0.0,0.0,-0.0390625149012,0.117187544703,0.0507812686265,0.0,0.0,0.0,0.0,0.0,0.0,0.0,0.0,0.0
1583762851063892127,523,1583762849739294006,imu,-0.0236816573888,-0.00384521763772,-0.0055542034097,0.999695539474,0.0,0.0,0.0,0.0,0.0,0.0,0.0,0.0,0.0,0.0,0.0,0.0,0.0,0.0,0.0,0.0,0.0,0.0,0.0,0.0,0.0,-0.0703125223517,0.0859375298023,0.0117187537253,0.0,0.0,0.0,0.0,0.0,0.0,0.0,0.0,0.0
1583762851063906711,524,1583762849798294006,imu,-0.0242920089513,-0.00378418248147,-0.00561523856595,0.999695539474,0.0,0.0,0.0,0.0,0.0,0.0,0.0,0.0,0.0,0.0,0.0,0.0,0.0,0.0,0.0,0.0,0.0,0.0,0.0,0.0,0.0,-0.0703125223517,0.0859375298023,0.0117187537253,0.0,0.0,0.0,0.0,0.0,0.0,0.0,0.0,0.0
1583762851063941603,525,1583762849838294006,imu,-0.0242920089513,-0.00378418248147,-0.00561523856595,0.999695539474,0.0,0.0,0.0,0.0,0.0,0.0,0.0,0.0,0.0,0.0,0.0,0.0,0.0,0.0,0.0,0.0,0.0,0.0,0.0,0.0,0.0,-0.0312500111759,0.0117187537253,0.0507812686265,0.0,0.0,0.0,0.0,0.0,0.0,0.0,0.0,0.0
1583762851063987936,526,1583762849898294006,imu,-0.0246582198888,-0.00384521763772,-0.0059204143472,0.999695539474,0.0,0.0,0.0,0.0,0.0,0.0,0.0,0.0,0.0,0.0,0.0,0.0,0.0,0.0,0.0,0.0,0.0,0.0,0.0,0.0,0.0,-0.0312500111759,0.0117187537253,0.0507812686265,0.0,0.0,0.0,0.0,0.0,0.0,0.0,0.0,0.0
1583762851063995903,527,1583762849938294006,imu,-0.0246582198888,-0.00384521763772,-0.0059204143472,0.999695539474,0.0,0.0,0.0,0.0,0.0,0.0,0.0,0.0,0.0,0.0,0.0,0.0,0.0,0.0,0.0,0.0,0.0,0.0,0.0,0.0,0.0,0.113281287253,-0.0585937723517,0.0351562611759,0.0,0.0,0.0,0.0,0.0,0.0,0.0,0.0,0.0
1583762851064003324,528,1583762849999294006,imu,-0.0250854678452,-0.00360107677989,-0.00598144950345,0.999634504318,0.0,0.0,0.0,0.0,0.0,0.0,0.0,0.0,0.0,0.0,0.0,0.0,0.0,0.0,0.0,0.0,0.0,0.0,0.0,0.0,0.0,0.113281287253,-0.0585937723517,0.0351562611759,0.0,0.0,0.0,0.0,0.0,0.0,0.0,0.0,0.0
1583762851064013470,529,1583762850040294006,imu,-0.0250854678452,-0.00360107677989,-0.00598144950345,0.999634504318,0.0,0.0,0.0,0.0,0.0,0.0,0.0,0.0,0.0,0.0,0.0,0.0,0.0,0.0,0.0,0.0,0.0,0.0,0.0,0.0,0.0,0.00781250279397,-0.0117187537253,-0.0117187537253,0.0,0.0,0.0,0.0,0.0,0.0,0.0,0.0,0.0
1583762851064024951,530,1583762850099294006,imu,-0.0253906436265,-0.00347900646739,-0.0061645549722,0.999634504318,0.0,0.0,0.0,0.0,0.0,0.0,0.0,0.0,0.0,0.0,0.0,0.0,0.0,0.0,0.0,0.0,0.0,0.0,0.0,0.0,0.0,0.00781250279397,-0.0117187537253,-0.0117187537253,0.0,0.0,0.0,0.0,0.0,0.0,0.0,0.0,0.0
1583762851064032953,531,1583762850140294006,imu,-0.0253906436265,-0.00347900646739,-0.0061645549722,0.999634504318,0.0,0.0,0.0,0.0,0.0,0.0,0.0,0.0,0.0,0.0,0.0,0.0,0.0,0.0,0.0,0.0,0.0,0.0,0.0,0.0,0.0,0.0351562611759,0.0273437593132,0.0859375298023,0.0,0.0,0.0,0.0,0.0,0.0,0.0,0.0,0.0
1583762851064041869,532,1583762850198294006,imu,-0.0253906436265,-0.00390625279397,-0.00622559059411,0.999634504318,0.0,0.0,0.0,0.0,0.0,0.0,0.0,0.0,0.0,0.0,0.0,0.0,0.0,0.0,0.0,0.0,0.0,0.0,0.0,0.0,0.0,0.0351562611759,0.0273437593132,0.0859375298023,0.0,0.0,0.0,0.0,0.0,0.0,0.0,0.0,0.0
1583762851064050224,533,1583762850238294006,imu,-0.0253906436265,-0.00390625279397,-0.00622559059411,0.999634504318,0.0,0.0,0.0,0.0,0.0,0.0,0.0,0.0,0.0,0.0,0.0,0.0,0.0,0.0,0.0,0.0,0.0,0.0,0.0,0.0,0.0,0.0664062723517,0.0273437593132,0.0625000223517,0.0,0.0,0.0,0.0,0.0,0.0,0.0,0.0,0.0
1583762851064057947,534,1583762850299294006,imu,-0.0253296084702,-0.00396728795022,-0.0061645549722,0.999634504318,0.0,0.0,0.0,0.0,0.0,0.0,0.0,0.0,0.0,0.0,0.0,0.0,0.0,0.0,0.0,0.0,0.0,0.0,0.0,0.0,0.0,0.0664062723517,0.0273437593132,0.0625000223517,0.0,0.0,0.0,0.0,0.0,0.0,0.0,0.0,0.0
1583762851064065233,535,1583762850339294006,imu,-0.0253296084702,-0.00396728795022,-0.0061645549722,0.999634504318,0.0,0.0,0.0,0.0,0.0,0.0,0.0,0.0,0.0,0.0,0.0,0.0,0.0,0.0,0.0,0.0,0.0,0.0,0.0,0.0,0.0,-0.0234375074506,-0.0195312574506,0.0859375298023,0.0,0.0,0.0,0.0,0.0,0.0,0.0,0.0,0.0
1583762851064072961,536,1583762850399294006,imu,-0.0251465030015,-0.00427246419713,-0.00634766090661,0.999634504318,0.0,0.0,0.0,0.0,0.0,0.0,0.0,0.0,0.0,0.0,0.0,0.0,0.0,0.0,0.0,0.0,0.0,0.0,0.0,0.0,0.0,-0.0234375074506,-0.0195312574506,0.0859375298023,0.0,0.0,0.0,0.0,0.0,0.0,0.0,0.0,0.0
1583762851064081739,537,1583762850438294006,imu,-0.0251465030015,-0.00427246419713,-0.00634766090661,0.999634504318,0.0,0.0,0.0,0.0,0.0,0.0,0.0,0.0,0.0,0.0,0.0,0.0,0.0,0.0,0.0,0.0,0.0,0.0,0.0,0.0,0.0,-0.00390625139698,0.0195312574506,-0.00390625139698,0.0,0.0,0.0,0.0,0.0,0.0,0.0,0.0,0.0
1583762851064090492,538,1583762850498294006,imu,-0.0249023623765,-0.00451660482213,-0.00665283668786,0.999634504318,0.0,0.0,0.0,0.0,0.0,0.0,0.0,0.0,0.0,0.0,0.0,0.0,0.0,0.0,0.0,0.0,0.0,0.0,0.0,0.0,0.0,-0.00390625139698,0.0195312574506,-0.00390625139698,0.0,0.0,0.0,0.0,0.0,0.0,0.0,0.0,0.0
1583762851064105670,539,1583762850538294006,imu,-0.0249023623765,-0.00451660482213,-0.00665283668786,0.999634504318,0.0,0.0,0.0,0.0,0.0,0.0,0.0,0.0,0.0,0.0,0.0,0.0,0.0,0.0,0.0,0.0,0.0,0.0,0.0,0.0,0.0,-0.117187544703,0.0468750149012,-0.0507812686265,0.0,0.0,0.0,0.0,0.0,0.0,0.0,0.0,0.0
1583762851064143488,540,1583762850598294006,imu,-0.0244751144201,-0.00482178060338,-0.00665283668786,0.999695539474,0.0,0.0,0.0,0.0,0.0,0.0,0.0,0.0,0.0,0.0,0.0,0.0,0.0,0.0,0.0,0.0,0.0,0.0,0.0,0.0,0.0,-0.117187544703,0.0468750149012,-0.0507812686265,0.0,0.0,0.0,0.0,0.0,0.0,0.0,0.0,0.0
1583762851064160459,541,1583762850638294006,imu,-0.0244751144201,-0.00482178060338,-0.00665283668786,0.999695539474,0.0,0.0,0.0,0.0,0.0,0.0,0.0,0.0,0.0,0.0,0.0,0.0,0.0,0.0,0.0,0.0,0.0,0.0,0.0,0.0,0.0,0.0429687649012,0.0117187537253,-0.0429687649012,0.0,0.0,0.0,0.0,0.0,0.0,0.0,0.0,0.0
1583762851064168144,542,1583762850698294006,imu,-0.0243530441076,-0.00488281622529,-0.00695801293477,0.999695539474,0.0,0.0,0.0,0.0,0.0,0.0,0.0,0.0,0.0,0.0,0.0,0.0,0.0,0.0,0.0,0.0,0.0,0.0,0.0,0.0,0.0,0.0429687649012,0.0117187537253,-0.0429687649012,0.0,0.0,0.0,0.0,0.0,0.0,0.0,0.0,0.0
1583762851064176478,543,1583762850738294006,imu,-0.0243530441076,-0.00488281622529,-0.00695801293477,0.999695539474,0.0,0.0,0.0,0.0,0.0,0.0,0.0,0.0,0.0,0.0,0.0,0.0,0.0,0.0,0.0,0.0,0.0,0.0,0.0,0.0,0.0,-0.0781250298023,0.0468750149012,-0.0585937723517,0.0,0.0,0.0,0.0,0.0,0.0,0.0,0.0,0.0
1583762851064186431,544,1583762850798294006,imu,-0.0242920089513,-0.00524902716279,-0.00708008324727,0.999695539474,0.0,0.0,0.0,0.0,0.0,0.0,0.0,0.0,0.0,0.0,0.0,0.0,0.0,0.0,0.0,0.0,0.0,0.0,0.0,0.0,0.0,-0.0781250298023,0.0468750149012,-0.0585937723517,0.0,0.0,0.0,0.0,0.0,0.0,0.0,0.0,0.0
1583762851064204064,545,1583762850838294006,imu,-0.0242920089513,-0.00524902716279,-0.00708008324727,0.999695539474,0.0,0.0,0.0,0.0,0.0,0.0,0.0,0.0,0.0,0.0,0.0,0.0,0.0,0.0,0.0,0.0,0.0,0.0,0.0,0.0,0.0,0.00390625139698,0.0468750149012,0.0781250298023,0.0,0.0,0.0,0.0,0.0,0.0,0.0,0.0,0.0
1583762851064213810,546,1583762850899294006,imu,-0.0238037277013,-0.00549316778779,-0.00726318871602,0.999695539474,0.0,0.0,0.0,0.0,0.0,0.0,0.0,0.0,0.0,0.0,0.0,0.0,0.0,0.0,0.0,0.0,0.0,0.0,0.0,0.0,0.0,0.00390625139698,0.0468750149012,0.0781250298023,0.0,0.0,0.0,0.0,0.0,0.0,0.0,0.0,0.0
1583762851064242476,547,1583762850939294006,imu,-0.0238037277013,-0.00549316778779,-0.00726318871602,0.999695539474,0.0,0.0,0.0,0.0,0.0,0.0,0.0,0.0,0.0,0.0,0.0,0.0,0.0,0.0,0.0,0.0,0.0,0.0,0.0,0.0,0.0,-0.0703125223517,0.0312500111759,-0.105468787253,0.0,0.0,0.0,0.0,0.0,0.0,0.0,0.0,0.0
1583762851064264073,548,1583762850998294006,imu,-0.0238647628576,-0.00573730887845,-0.00720215355977,0.999695539474,0.0,0.0,0.0,0.0,0.0,0.0,0.0,0.0,0.0,0.0,0.0,0.0,0.0,0.0,0.0,0.0,0.0,0.0,0.0,0.0,0.0,-0.0703125223517,0.0312500111759,-0.105468787253,0.0,0.0,0.0,0.0,0.0,0.0,0.0,0.0,0.0
1583762851096808123,549,1583762851038294006,imu,-0.0238647628576,-0.00573730887845,-0.00720215355977,0.999695539474,0.0,0.0,0.0,0.0,0.0,0.0,0.0,0.0,0.0,0.0,0.0,0.0,0.0,0.0,0.0,0.0,0.0,0.0,0.0,0.0,0.0,0.00390625139698,0.0781250298023,0.0117187537253,0.0,0.0,0.0,0.0,0.0,0.0,0.0,0.0,0.0
1583762851165350041,550,1583762851098294006,imu,-0.0236816573888,-0.0059204143472,-0.00744629418477,0.999695539474,0.0,0.0,0.0,0.0,0.0,0.0,0.0,0.0,0.0,0.0,0.0,0.0,0.0,0.0,0.0,0.0,0.0,0.0,0.0,0.0,0.0,0.00390625139698,0.0781250298023,0.0117187537253,0.0,0.0,0.0,0.0,0.0,0.0,0.0,0.0,0.0
1583762851198178621,551,1583762851138294006,imu,-0.0236816573888,-0.0059204143472,-0.00744629418477,0.999695539474,0.0,0.0,0.0,0.0,0.0,0.0,0.0,0.0,0.0,0.0,0.0,0.0,0.0,0.0,0.0,0.0,0.0,0.0,0.0,0.0,0.0,0.0117187537253,-0.0429687649012,0.0664062723517,0.0,0.0,0.0,0.0,0.0,0.0,0.0,0.0,0.0
1583762851310660567,552,1583762851199294006,imu,-0.0236206222326,-0.0059204143472,-0.00756836496294,0.999695539474,0.0,0.0,0.0,0.0,0.0,0.0,0.0,0.0,0.0,0.0,0.0,0.0,0.0,0.0,0.0,0.0,0.0,0.0,0.0,0.0,0.0,0.0117187537253,-0.0429687649012,0.0664062723517,0.0,0.0,0.0,0.0,0.0,0.0,0.0,0.0,0.0
1583762851319578221,553,1583762851239294006,imu,-0.0236206222326,-0.0059204143472,-0.00756836496294,0.999695539474,0.0,0.0,0.0,0.0,0.0,0.0,0.0,0.0,0.0,0.0,0.0,0.0,0.0,0.0,0.0,0.0,0.0,0.0,0.0,0.0,0.0,0.00390625139698,0.101562537253,-0.0195312574506,0.0,0.0,0.0,0.0,0.0,0.0,0.0,0.0,0.0
1583762851357012800,554,1583762851298294006,imu,-0.0236816573888,-0.00585937919095,-0.00769043527544,0.999695539474,0.0,0.0,0.0,0.0,0.0,0.0,0.0,0.0,0.0,0.0,0.0,0.0,0.0,0.0,0.0,0.0,0.0,0.0,0.0,0.0,0.0,0.00390625139698,0.101562537253,-0.0195312574506,0.0,0.0,0.0,0.0,0.0,0.0,0.0,0.0,0.0
1583762851414443083,555,1583762851338294006,imu,-0.0236816573888,-0.00585937919095,-0.00769043527544,0.999695539474,0.0,0.0,0.0,0.0,0.0,0.0,0.0,0.0,0.0,0.0,0.0,0.0,0.0,0.0,0.0,0.0,0.0,0.0,0.0,0.0,0.0,0.0429687649012,0.101562537253,0.0859375298023,0.0,0.0,0.0,0.0,0.0,0.0,0.0,0.0,0.0
1583762851437030667,556,1583762851398294006,imu,-0.0234985519201,-0.0060424846597,-0.00775147043169,0.999695539474,0.0,0.0,0.0,0.0,0.0,0.0,0.0,0.0,0.0,0.0,0.0,0.0,0.0,0.0,0.0,0.0,0.0,0.0,0.0,0.0,0.0,0.0429687649012,0.101562537253,0.0859375298023,0.0,0.0,0.0,0.0,0.0,0.0,0.0,0.0,0.0
1583762851492936619,557,1583762851438294006,imu,-0.0234985519201,-0.0060424846597,-0.00775147043169,0.999695539474,0.0,0.0,0.0,0.0,0.0,0.0,0.0,0.0,0.0,0.0,0.0,0.0,0.0,0.0,0.0,0.0,0.0,0.0,0.0,0.0,0.0,-0.00390625139698,0.00781250279397,-0.0351562611759,0.0,0.0,0.0,0.0,0.0,0.0,0.0,0.0,0.0
1583762851546481648,558,1583762851498294006,imu,-0.0234375167638,-0.00610351981595,-0.00787354074419,0.999695539474,0.0,0.0,0.0,0.0,0.0,0.0,0.0,0.0,0.0,0.0,0.0,0.0,0.0,0.0,0.0,0.0,0.0,0.0,0.0,0.0,0.0,-0.00390625139698,0.00781250279397,-0.0351562611759,0.0,0.0,0.0,0.0,0.0,0.0,0.0,0.0,0.0
1583762851614610988,559,1583762851545005067,imu,-0.0234375167638,-0.00610351981595,-0.00787354074419,0.999695539474,0.0,0.0,0.0,0.0,0.0,0.0,0.0,0.0,0.0,0.0,0.0,0.0,0.0,0.0,0.0,0.0,0.0,0.0,0.0,0.0,0.0,0.0195312574506,0.0,0.00390625139698,0.0,0.0,0.0,0.0,0.0,0.0,0.0,0.0,0.0
1583762851643569417,560,1583762851605005067,imu,-0.0235595870763,-0.0057983440347,-0.00805664621294,0.999695539474,0.0,0.0,0.0,0.0,0.0,0.0,0.0,0.0,0.0,0.0,0.0,0.0,0.0,0.0,0.0,0.0,0.0,0.0,0.0,0.0,0.0,0.0195312574506,0.0,0.00390625139698,0.0,0.0,0.0,0.0,0.0,0.0,0.0,0.0,0.0
1583762851687712189,561,1583762851644005067,imu,-0.0235595870763,-0.0057983440347,-0.00805664621294,0.999695539474,0.0,0.0,0.0,0.0,0.0,0.0,0.0,0.0,0.0,0.0,0.0,0.0,0.0,0.0,0.0,0.0,0.0,0.0,0.0,0.0,0.0,-0.0546875186265,0.00781250279397,-0.0429687649012,0.0,0.0,0.0,0.0,0.0,0.0,0.0,0.0,0.0
1583762851742149382,562,1583762851705005067,imu,-0.0233764816076,-0.0057983440347,-0.00811768136919,0.999695539474,0.0,0.0,0.0,0.0,0.0,0.0,0.0,0.0,0.0,0.0,0.0,0.0,0.0,0.0,0.0,0.0,0.0,0.0,0.0,0.0,0.0,-0.0546875186265,0.00781250279397,-0.0429687649012,0.0,0.0,0.0,0.0,0.0,0.0,0.0,0.0,0.0
1583762851791564973,563,1583762851744005067,imu,-0.0233764816076,-0.0057983440347,-0.00811768136919,0.999695539474,0.0,0.0,0.0,0.0,0.0,0.0,0.0,0.0,0.0,0.0,0.0,0.0,0.0,0.0,0.0,0.0,0.0,0.0,0.0,0.0,0.0,0.0585937723517,0.0859375298023,0.0351562611759,0.0,0.0,0.0,0.0,0.0,0.0,0.0,0.0,0.0
1583762851854639167,564,1583762851805005067,imu,-0.0233764816076,-0.0057983440347,-0.00823975168169,0.999695539474,0.0,0.0,0.0,0.0,0.0,0.0,0.0,0.0,0.0,0.0,0.0,0.0,0.0,0.0,0.0,0.0,0.0,0.0,0.0,0.0,0.0,0.0585937723517,0.0859375298023,0.0351562611759,0.0,0.0,0.0,0.0,0.0,0.0,0.0,0.0,0.0
1583762851884050893,565,1583762851844005067,imu,-0.0233764816076,-0.0057983440347,-0.00823975168169,0.999695539474,0.0,0.0,0.0,0.0,0.0,0.0,0.0,0.0,0.0,0.0,0.0,0.0,0.0,0.0,0.0,0.0,0.0,0.0,0.0,0.0,0.0,0.0585937723517,-0.0820312798023,-0.0507812686265,0.0,0.0,0.0,0.0,0.0,0.0,0.0,0.0,0.0
1583762851947361807,566,1583762851904005067,imu,-0.0232544112951,-0.00585937919095,-0.00823975168169,0.999695539474,0.0,0.0,0.0,0.0,0.0,0.0,0.0,0.0,0.0,0.0,0.0,0.0,0.0,0.0,0.0,0.0,0.0,0.0,0.0,0.0,0.0,0.0585937723517,-0.0820312798023,-0.0507812686265,0.0,0.0,0.0,0.0,0.0,0.0,0.0,0.0,0.0
1583762852014573736,567,1583762851944005067,imu,-0.0232544112951,-0.00585937919095,-0.00823975168169,0.999695539474,0.0,0.0,0.0,0.0,0.0,0.0,0.0,0.0,0.0,0.0,0.0,0.0,0.0,0.0,0.0,0.0,0.0,0.0,0.0,0.0,0.0,-0.0625000223517,0.0390625149012,0.0273437593132,0.0,0.0,0.0,0.0,0.0,0.0,0.0,0.0,0.0
1583762852047695620,568,1583762852005005067,imu,-0.0230102706701,-0.0060424846597,-0.00823975168169,0.999695539474,0.0,0.0,0.0,0.0,0.0,0.0,0.0,0.0,0.0,0.0,0.0,0.0,0.0,0.0,0.0,0.0,0.0,0.0,0.0,0.0,0.0,-0.0625000223517,0.0390625149012,0.0273437593132,0.0,0.0,0.0,0.0,0.0,0.0,0.0,0.0,0.0
1583762852095537534,569,1583762852044005067,imu,-0.0230102706701,-0.0060424846597,-0.00823975168169,0.999695539474,0.0,0.0,0.0,0.0,0.0,0.0,0.0,0.0,0.0,0.0,0.0,0.0,0.0,0.0,0.0,0.0,0.0,0.0,0.0,0.0,0.0,-0.0468750149012,0.0390625149012,-0.121093794703,0.0,0.0,0.0,0.0,0.0,0.0,0.0,0.0,0.0
1583762852140226482,570,1583762852105005067,imu,-0.0228882003576,-0.00573730887845,-0.00823975168169,0.999695539474,0.0,0.0,0.0,0.0,0.0,0.0,0.0,0.0,0.0,0.0,0.0,0.0,0.0,0.0,0.0,0.0,0.0,0.0,0.0,0.0,0.0,-0.0468750149012,0.0390625149012,-0.121093794703,0.0,0.0,0.0,0.0,0.0,0.0,0.0,0.0,0.0
1583762852188148712,571,1583762852144005067,imu,-0.0228882003576,-0.00573730887845,-0.00823975168169,0.999695539474,0.0,0.0,0.0,0.0,0.0,0.0,0.0,0.0,0.0,0.0,0.0,0.0,0.0,0.0,0.0,0.0,0.0,0.0,0.0,0.0,0.0,-0.00390625139698,0.0390625149012,0.132812544703,0.0,0.0,0.0,0.0,0.0,0.0,0.0,0.0,0.0
1583762852253115039,572,1583762852204005067,imu,-0.0229492355138,-0.00573730887845,-0.00823975168169,0.999695539474,0.0,0.0,0.0,0.0,0.0,0.0,0.0,0.0,0.0,0.0,0.0,0.0,0.0,0.0,0.0,0.0,0.0,0.0,0.0,0.0,0.0,-0.00390625139698,0.0390625149012,0.132812544703,0.0,0.0,0.0,0.0,0.0,0.0,0.0,0.0,0.0
1583762852283011806,573,1583762852244005067,imu,-0.0229492355138,-0.00573730887845,-0.00823975168169,0.999695539474,0.0,0.0,0.0,0.0,0.0,0.0,0.0,0.0,0.0,0.0,0.0,0.0,0.0,0.0,0.0,0.0,0.0,0.0,0.0,0.0,0.0,-0.00390625139698,-0.0273437593132,-0.0273437593132,0.0,0.0,0.0,0.0,0.0,0.0,0.0,0.0,0.0
1583762852346144150,574,1583762852305005067,imu,-0.0230102706701,-0.0055542034097,-0.00805664621294,0.999695539474,0.0,0.0,0.0,0.0,0.0,0.0,0.0,0.0,0.0,0.0,0.0,0.0,0.0,0.0,0.0,0.0,0.0,0.0,0.0,0.0,0.0,-0.00390625139698,-0.0273437593132,-0.0273437593132,0.0,0.0,0.0,0.0,0.0,0.0,0.0,0.0,0.0
1583762852414738664,575,1583762852345005067,imu,-0.0230102706701,-0.0055542034097,-0.00805664621294,0.999695539474,0.0,0.0,0.0,0.0,0.0,0.0,0.0,0.0,0.0,0.0,0.0,0.0,0.0,0.0,0.0,0.0,0.0,0.0,0.0,0.0,0.0,-0.00390625139698,-0.0273437593132,0.0351562611759,0.0,0.0,0.0,0.0,0.0,0.0,0.0,0.0,0.0
1583762852456566764,576,1583762852405005067,imu,-0.0230713058263,-0.00561523856595,-0.00817871652544,0.999695539474,0.0,0.0,0.0,0.0,0.0,0.0,0.0,0.0,0.0,0.0,0.0,0.0,0.0,0.0,0.0,0.0,0.0,0.0,0.0,0.0,0.0,-0.00390625139698,-0.0273437593132,0.0351562611759,0.0,0.0,0.0,0.0,0.0,0.0,0.0,0.0,0.0
1583762852489120946,577,1583762852444005067,imu,-0.0230713058263,-0.00561523856595,-0.00817871652544,0.999695539474,0.0,0.0,0.0,0.0,0.0,0.0,0.0,0.0,0.0,0.0,0.0,0.0,0.0,0.0,0.0,0.0,0.0,0.0,0.0,0.0,0.0,-0.0117187537253,0.0156250055879,-0.0195312574506,0.0,0.0,0.0,0.0,0.0,0.0,0.0,0.0,0.0
1583762852543357478,578,1583762852504005067,imu,-0.0231933761388,-0.00500488653779,-0.00817871652544,0.999695539474,0.0,0.0,0.0,0.0,0.0,0.0,0.0,0.0,0.0,0.0,0.0,0.0,0.0,0.0,0.0,0.0,0.0,0.0,0.0,0.0,0.0,-0.0117187537253,0.0156250055879,-0.0195312574506,0.0,0.0,0.0,0.0,0.0,0.0,0.0,0.0,0.0
1583762852589383576,579,1583762852544005067,imu,-0.0231933761388,-0.00500488653779,-0.00817871652544,0.999695539474,0.0,0.0,0.0,0.0,0.0,0.0,0.0,0.0,0.0,0.0,0.0,0.0,0.0,0.0,0.0,0.0,0.0,0.0,0.0,0.0,0.0,-0.0156250055879,-0.144531294703,-0.0976562872529,0.0,0.0,0.0,0.0,0.0,0.0,0.0,0.0,0.0
1583762852653078235,580,1583762852605005067,imu,-0.0229492355138,-0.00506592169404,-0.00805664621294,0.999695539474,0.0,0.0,0.0,0.0,0.0,0.0,0.0,0.0,0.0,0.0,0.0,0.0,0.0,0.0,0.0,0.0,0.0,0.0,0.0,0.0,0.0,-0.0156250055879,-0.144531294703,-0.0976562872529,0.0,0.0,0.0,0.0,0.0,0.0,0.0,0.0,0.0
1583762852714464097,581,1583762852646005067,imu,-0.0229492355138,-0.00506592169404,-0.00805664621294,0.999695539474,0.0,0.0,0.0,0.0,0.0,0.0,0.0,0.0,0.0,0.0,0.0,0.0,0.0,0.0,0.0,0.0,0.0,0.0,0.0,0.0,0.0,0.0585937723517,-0.0273437593132,0.0429687649012,0.0,0.0,0.0,0.0,0.0,0.0,0.0,0.0,0.0
1583762852754282100,582,1583762852705005067,imu,-0.0225830245763,-0.00476074544713,-0.00830078683794,0.999695539474,0.0,0.0,0.0,0.0,0.0,0.0,0.0,0.0,0.0,0.0,0.0,0.0,0.0,0.0,0.0,0.0,0.0,0.0,0.0,0.0,0.0,0.0585937723517,-0.0273437593132,0.0429687649012,0.0,0.0,0.0,0.0,0.0,0.0,0.0,0.0,0.0
1583762852789640402,583,1583762852745005067,imu,-0.0225830245763,-0.00476074544713,-0.00830078683794,0.999695539474,0.0,0.0,0.0,0.0,0.0,0.0,0.0,0.0,0.0,0.0,0.0,0.0,0.0,0.0,0.0,0.0,0.0,0.0,0.0,0.0,0.0,-0.0859375298023,0.0,0.0429687649012,0.0,0.0,0.0,0.0,0.0,0.0,0.0,0.0,0.0
1583762852853850038,584,1583762852804005067,imu,-0.0223999191076,-0.00457763997838,-0.00836182199419,0.999695539474,0.0,0.0,0.0,0.0,0.0,0.0,0.0,0.0,0.0,0.0,0.0,0.0,0.0,0.0,0.0,0.0,0.0,0.0,0.0,0.0,0.0,-0.0859375298023,0.0,0.0429687649012,0.0,0.0,0.0,0.0,0.0,0.0,0.0,0.0,0.0
1583762852914476617,585,1583762852844005067,imu,-0.0223999191076,-0.00457763997838,-0.00836182199419,0.999695539474,0.0,0.0,0.0,0.0,0.0,0.0,0.0,0.0,0.0,0.0,0.0,0.0,0.0,0.0,0.0,0.0,0.0,0.0,0.0,0.0,0.0,0.0273437593132,-0.00781250279397,0.0273437593132,0.0,0.0,0.0,0.0,0.0,0.0,0.0,0.0,0.0
1583762852960934933,586,1583762852905005067,imu,-0.0223999191076,-0.00439453450963,-0.00842285715044,0.999695539474,0.0,0.0,0.0,0.0,0.0,0.0,0.0,0.0,0.0,0.0,0.0,0.0,0.0,0.0,0.0,0.0,0.0,0.0,0.0,0.0,0.0,0.0273437593132,-0.00781250279397,0.0273437593132,0.0,0.0,0.0,0.0,0.0,0.0,0.0,0.0,0.0
1583762852991795562,587,1583762852946005067,imu,-0.0223999191076,-0.00439453450963,-0.00842285715044,0.999695539474,0.0,0.0,0.0,0.0,0.0,0.0,0.0,0.0,0.0,0.0,0.0,0.0,0.0,0.0,0.0,0.0,0.0,0.0,0.0,0.0,0.0,-0.00781250279397,-0.00781250279397,0.0195312574506,0.0,0.0,0.0,0.0,0.0,0.0,0.0,0.0,0.0
1583762853053783001,588,1583762853005005067,imu,-0.0222778487951,-0.00408935826272,-0.00805664621294,0.999695539474,0.0,0.0,0.0,0.0,0.0,0.0,0.0,0.0,0.0,0.0,0.0,0.0,0.0,0.0,0.0,0.0,0.0,0.0,0.0,0.0,0.0,-0.00781250279397,-0.00781250279397,0.0195312574506,0.0,0.0,0.0,0.0,0.0,0.0,0.0,0.0,0.0
1583762853085538220,589,1583762853045005067,imu,-0.0222778487951,-0.00408935826272,-0.00805664621294,0.999695539474,0.0,0.0,0.0,0.0,0.0,0.0,0.0,0.0,0.0,0.0,0.0,0.0,0.0,0.0,0.0,0.0,0.0,0.0,0.0,0.0,0.0,-0.0546875186265,-0.214843824506,-0.0273437593132,0.0,0.0,0.0,0.0,0.0,0.0,0.0,0.0,0.0
1583762853146873456,590,1583762853104005067,imu,-0.0225830245763,-0.00378418248147,-0.00744629418477,0.999695539474,0.0,0.0,0.0,0.0,0.0,0.0,0.0,0.0,0.0,0.0,0.0,0.0,0.0,0.0,0.0,0.0,0.0,0.0,0.0,0.0,0.0,-0.0546875186265,-0.214843824506,-0.0273437593132,0.0,0.0,0.0,0.0,0.0,0.0,0.0,0.0,0.0
1583762853190976857,591,1583762853144005067,imu,-0.0225830245763,-0.00378418248147,-0.00744629418477,0.999695539474,0.0,0.0,0.0,0.0,0.0,0.0,0.0,0.0,0.0,0.0,0.0,0.0,0.0,0.0,0.0,0.0,0.0,0.0,0.0,0.0,0.0,0.105468787253,-0.371093869209,0.0507812686265,0.0,0.0,0.0,0.0,0.0,0.0,0.0,0.0,0.0
1583762853253751951,592,1583762853204005067,imu,-0.0232544112951,-0.00347900646739,-0.00726318871602,0.999695539474,0.0,0.0,0.0,0.0,0.0,0.0,0.0,0.0,0.0,0.0,0.0,0.0,0.0,0.0,0.0,0.0,0.0,0.0,0.0,0.0,0.0,0.105468787253,-0.371093869209,0.0507812686265,0.0,0.0,0.0,0.0,0.0,0.0,0.0,0.0,0.0
1583762853283051899,593,1583762853244005067,imu,-0.0232544112951,-0.00347900646739,-0.00726318871602,0.999695539474,0.0,0.0,0.0,0.0,0.0,0.0,0.0,0.0,0.0,0.0,0.0,0.0,0.0,0.0,0.0,0.0,0.0,0.0,0.0,0.0,0.0,-0.117187544703,-0.164062559605,-0.0351562611759,0.0,0.0,0.0,0.0,0.0,0.0,0.0,0.0,0.0
1583762853351738244,594,1583762853304005067,imu,-0.0241089034826,-0.00299072475173,-0.00701904809102,0.999695539474,0.0,0.0,0.0,0.0,0.0,0.0,0.0,0.0,0.0,0.0,0.0,0.0,0.0,0.0,0.0,0.0,0.0,0.0,0.0,0.0,0.0,-0.117187544703,-0.164062559605,-0.0351562611759,0.0,0.0,0.0,0.0,0.0,0.0,0.0,0.0,0.0
1583762853392196699,595,1583762853344005067,imu,-0.0241089034826,-0.00299072475173,-0.00701904809102,0.999695539474,0.0,0.0,0.0,0.0,0.0,0.0,0.0,0.0,0.0,0.0,0.0,0.0,0.0,0.0,0.0,0.0,0.0,0.0,0.0,0.0,0.0,0.0898437798023,-0.0312500111759,0.0429687649012,0.0,0.0,0.0,0.0,0.0,0.0,0.0,0.0,0.0
1583762853454359171,596,1583762853404005067,imu,-0.0248413272202,-0.00280761928298,-0.00628662575036,0.999695539474,0.0,0.0,0.0,0.0,0.0,0.0,0.0,0.0,0.0,0.0,0.0,0.0,0.0,0.0,0.0,0.0,0.0,0.0,0.0,0.0,0.0,0.0898437798023,-0.0312500111759,0.0429687649012,0.0,0.0,0.0,0.0,0.0,0.0,0.0,0.0,0.0
1583762853489151566,597,1583762853443005067,imu,-0.0248413272202,-0.00280761928298,-0.00628662575036,0.999695539474,0.0,0.0,0.0,0.0,0.0,0.0,0.0,0.0,0.0,0.0,0.0,0.0,0.0,0.0,0.0,0.0,0.0,0.0,0.0,0.0,0.0,0.0507812686265,-0.0859375298023,-0.0351562611759,0.0,0.0,0.0,0.0,0.0,0.0,0.0,0.0,0.0
1583762853572287061,598,1583762853504005067,imu,-0.0256958194077,-0.0025024432689,-0.0055542034097,0.999634504318,0.0,0.0,0.0,0.0,0.0,0.0,0.0,0.0,0.0,0.0,0.0,0.0,0.0,0.0,0.0,0.0,0.0,0.0,0.0,0.0,0.0,0.0507812686265,-0.0859375298023,-0.0351562611759,0.0,0.0,0.0,0.0,0.0,0.0,0.0,0.0,0.0
1583762853599117343,599,1583762853544005067,imu,-0.0256958194077,-0.0025024432689,-0.0055542034097,0.999634504318,0.0,0.0,0.0,0.0,0.0,0.0,0.0,0.0,0.0,0.0,0.0,0.0,0.0,0.0,0.0,0.0,0.0,0.0,0.0,0.0,0.0,-0.0234375074506,0.0156250055879,0.0507812686265,0.0,0.0,0.0,0.0,0.0,0.0,0.0,0.0,0.0
1583762853657496445,600,1583762853604005067,imu,-0.0264282412827,-0.00256347842515,-0.00518799200654,0.999634504318,0.0,0.0,0.0,0.0,0.0,0.0,0.0,0.0,0.0,0.0,0.0,0.0,0.0,0.0,0.0,0.0,0.0,0.0,0.0,0.0,0.0,-0.0234375074506,0.0156250055879,0.0507812686265,0.0,0.0,0.0,0.0,0.0,0.0,0.0,0.0,0.0
1583762853714572574,601,1583762853644005067,imu,-0.0264282412827,-0.00256347842515,-0.00518799200654,0.999634504318,0.0,0.0,0.0,0.0,0.0,0.0,0.0,0.0,0.0,0.0,0.0,0.0,0.0,0.0,0.0,0.0,0.0,0.0,0.0,0.0,0.0,0.0156250055879,0.0664062723517,0.0117187537253,0.0,0.0,0.0,0.0,0.0,0.0,0.0,0.0,0.0
1583762853744762087,602,1583762853704005067,imu,-0.027221698314,-0.00268554873765,-0.00457763997838,0.999634504318,0.0,0.0,0.0,0.0,0.0,0.0,0.0,0.0,0.0,0.0,0.0,0.0,0.0,0.0,0.0,0.0,0.0,0.0,0.0,0.0,0.0,0.0156250055879,0.0664062723517,0.0117187537253,0.0,0.0,0.0,0.0,0.0,0.0,0.0,0.0,0.0
1583762853792571157,603,1583762853744005067,imu,-0.027221698314,-0.00268554873765,-0.00457763997838,0.999634504318,0.0,0.0,0.0,0.0,0.0,0.0,0.0,0.0,0.0,0.0,0.0,0.0,0.0,0.0,0.0,0.0,0.0,0.0,0.0,0.0,0.0,0.0156250055879,0.238281339407,0.0117187537253,0.0,0.0,0.0,0.0,0.0,0.0,0.0,0.0,0.0
1583762853851550384,604,1583762853805005067,imu,-0.0277099814266,-0.0027465838939,-0.00415039341897,0.999634504318,0.0,0.0,0.0,0.0,0.0,0.0,0.0,0.0,0.0,0.0,0.0,0.0,0.0,0.0,0.0,0.0,0.0,0.0,0.0,0.0,0.0,0.0156250055879,0.238281339407,0.0117187537253,0.0,0.0,0.0,0.0,0.0,0.0,0.0,0.0,0.0
1583762853920729901,605,1583762853845005067,imu,-0.0277099814266,-0.0027465838939,-0.00415039341897,0.999634504318,0.0,0.0,0.0,0.0,0.0,0.0,0.0,0.0,0.0,0.0,0.0,0.0,0.0,0.0,0.0,0.0,0.0,0.0,0.0,0.0,0.0,-0.117187544703,0.304687619209,0.0117187537253,0.0,0.0,0.0,0.0,0.0,0.0,0.0,0.0,0.0
1583762853942775636,606,1583762853904005067,imu,-0.0277710165828,-0.00286865443923,-0.00421142857522,0.999573469162,0.0,0.0,0.0,0.0,0.0,0.0,0.0,0.0,0.0,0.0,0.0,0.0,0.0,0.0,0.0,0.0,0.0,0.0,0.0,0.0,0.0,-0.117187544703,0.304687619209,0.0117187537253,0.0,0.0,0.0,0.0,0.0,0.0,0.0,0.0,0.0
1583762853993427777,607,1583762853944005067,imu,-0.0277710165828,-0.00286865443923,-0.00421142857522,0.999573469162,0.0,0.0,0.0,0.0,0.0,0.0,0.0,0.0,0.0,0.0,0.0,0.0,0.0,0.0,0.0,0.0,0.0,0.0,0.0,0.0,0.0,0.0507812686265,0.0937500298023,0.00390625139698,0.0,0.0,0.0,0.0,0.0,0.0,0.0,0.0,0.0
1583762854052917696,608,1583762854003005067,imu,-0.0275879111141,-0.00280761928298,-0.00427246419713,0.999634504318,0.0,0.0,0.0,0.0,0.0,0.0,0.0,0.0,0.0,0.0,0.0,0.0,0.0,0.0,0.0,0.0,0.0,0.0,0.0,0.0,0.0,0.0507812686265,0.0937500298023,0.00390625139698,0.0,0.0,0.0,0.0,0.0,0.0,0.0,0.0,0.0
1583762854096820964,609,1583762854046005067,imu,-0.0275879111141,-0.00280761928298,-0.00427246419713,0.999634504318,0.0,0.0,0.0,0.0,0.0,0.0,0.0,0.0,0.0,0.0,0.0,0.0,0.0,0.0,0.0,0.0,0.0,0.0,0.0,0.0,0.0,-0.0546875186265,0.0859375298023,0.00390625139698,0.0,0.0,0.0,0.0,0.0,0.0,0.0,0.0,0.0
1583762854143825079,610,1583762854109508073,imu,-0.0273437686265,-0.0027465838939,-0.00427246419713,0.999634504318,0.0,0.0,0.0,0.0,0.0,0.0,0.0,0.0,0.0,0.0,0.0,0.0,0.0,0.0,0.0,0.0,0.0,0.0,0.0,0.0,0.0,-0.0546875186265,0.0859375298023,0.00390625139698,0.0,0.0,0.0,0.0,0.0,0.0,0.0,0.0,0.0
1583762854193440583,611,1583762854149508073,imu,-0.0273437686265,-0.0027465838939,-0.00427246419713,0.999634504318,0.0,0.0,0.0,0.0,0.0,0.0,0.0,0.0,0.0,0.0,0.0,0.0,0.0,0.0,0.0,0.0,0.0,0.0,0.0,0.0,0.0,-0.0156250055879,0.0156250055879,0.00390625139698,0.0,0.0,0.0,0.0,0.0,0.0,0.0,0.0,0.0
1583762854255035669,612,1583762854208508073,imu,-0.026977557689,-0.0027465838939,-0.00427246419713,0.999634504318,0.0,0.0,0.0,0.0,0.0,0.0,0.0,0.0,0.0,0.0,0.0,0.0,0.0,0.0,0.0,0.0,0.0,0.0,0.0,0.0,0.0,-0.0156250055879,0.0156250055879,0.00390625139698,0.0,0.0,0.0,0.0,0.0,0.0,0.0,0.0,0.0
1583762854290301256,613,1583762854248508073,imu,-0.026977557689,-0.0027465838939,-0.00427246419713,0.999634504318,0.0,0.0,0.0,0.0,0.0,0.0,0.0,0.0,0.0,0.0,0.0,0.0,0.0,0.0,0.0,0.0,0.0,0.0,0.0,0.0,0.0,0.0234375074506,0.00781250279397,0.00390625139698,0.0,0.0,0.0,0.0,0.0,0.0,0.0,0.0,0.0
1583762854354974748,614,1583762854308508073,imu,-0.0266113467515,-0.0026245135814,-0.00427246419713,0.999634504318,0.0,0.0,0.0,0.0,0.0,0.0,0.0,0.0,0.0,0.0,0.0,0.0,0.0,0.0,0.0,0.0,0.0,0.0,0.0,0.0,0.0,0.0234375074506,0.00781250279397,0.00390625139698,0.0,0.0,0.0,0.0,0.0,0.0,0.0,0.0,0.0
1583762854414528437,615,1583762854348508073,imu,-0.0266113467515,-0.0026245135814,-0.00427246419713,0.999634504318,0.0,0.0,0.0,0.0,0.0,0.0,0.0,0.0,0.0,0.0,0.0,0.0,0.0,0.0,0.0,0.0,0.0,0.0,0.0,0.0,0.0,-0.0156250055879,0.0,0.00390625139698,0.0,0.0,0.0,0.0,0.0,0.0,0.0,0.0,0.0
1583762854452691343,616,1583762854408508073,imu,-0.0263061709702,-0.0026245135814,-0.00427246419713,0.999634504318,0.0,0.0,0.0,0.0,0.0,0.0,0.0,0.0,0.0,0.0,0.0,0.0,0.0,0.0,0.0,0.0,0.0,0.0,0.0,0.0,0.0,-0.0156250055879,0.0,0.00390625139698,0.0,0.0,0.0,0.0,0.0,0.0,0.0,0.0,0.0
1583762854497048746,617,1583762854448508073,imu,-0.0263061709702,-0.0026245135814,-0.00427246419713,0.999634504318,0.0,0.0,0.0,0.0,0.0,0.0,0.0,0.0,0.0,0.0,0.0,0.0,0.0,0.0,0.0,0.0,0.0,0.0,0.0,0.0,0.0,-0.0156250055879,0.0,0.00390625139698,0.0,0.0,0.0,0.0,0.0,0.0,0.0,0.0,0.0
1583762854554041848,618,1583762854508508073,imu,-0.0259399600327,-0.00256347842515,-0.00433349935338,0.999634504318,0.0,0.0,0.0,0.0,0.0,0.0,0.0,0.0,0.0,0.0,0.0,0.0,0.0,0.0,0.0,0.0,0.0,0.0,0.0,0.0,0.0,-0.0156250055879,0.0,0.00390625139698,0.0,0.0,0.0,0.0,0.0,0.0,0.0,0.0,0.0
1583762854595720277,619,1583762854547508073,imu,-0.0259399600327,-0.00256347842515,-0.00433349935338,0.999634504318,0.0,0.0,0.0,0.0,0.0,0.0,0.0,0.0,0.0,0.0,0.0,0.0,0.0,0.0,0.0,0.0,0.0,0.0,0.0,0.0,0.0,-0.00781250279397,0.0,-0.0351562611759,0.0,0.0,0.0,0.0,0.0,0.0,0.0,0.0,0.0
1583762854643748814,620,1583762854608508073,imu,-0.0256347842515,-0.00256347842515,-0.00439453450963,0.999634504318,0.0,0.0,0.0,0.0,0.0,0.0,0.0,0.0,0.0,0.0,0.0,0.0,0.0,0.0,0.0,0.0,0.0,0.0,0.0,0.0,0.0,-0.00781250279397,0.0,-0.0351562611759,0.0,0.0,0.0,0.0,0.0,0.0,0.0,0.0,0.0
1583762854701534544,621,1583762854648508073,imu,-0.0256347842515,-0.00256347842515,-0.00439453450963,0.999634504318,0.0,0.0,0.0,0.0,0.0,0.0,0.0,0.0,0.0,0.0,0.0,0.0,0.0,0.0,0.0,0.0,0.0,0.0,0.0,0.0,0.0,-0.0156250055879,0.0,0.0117187537253,0.0,0.0,0.0,0.0,0.0,0.0,0.0,0.0,0.0
1583762854753345845,622,1583762854708508073,imu,-0.0253906436265,-0.00256347842515,-0.00439453450963,0.999634504318,0.0,0.0,0.0,0.0,0.0,0.0,0.0,0.0,0.0,0.0,0.0,0.0,0.0,0.0,0.0,0.0,0.0,0.0,0.0,0.0,0.0,-0.0156250055879,0.0,0.0117187537253,0.0,0.0,0.0,0.0,0.0,0.0,0.0,0.0,0.0
1583762854794694592,623,1583762854748508073,imu,-0.0253906436265,-0.00256347842515,-0.00439453450963,0.999634504318,0.0,0.0,0.0,0.0,0.0,0.0,0.0,0.0,0.0,0.0,0.0,0.0,0.0,0.0,0.0,0.0,0.0,0.0,0.0,0.0,0.0,-0.00781250279397,0.0,-0.0273437593132,0.0,0.0,0.0,0.0,0.0,0.0,0.0,0.0,0.0
1583762854844440875,624,1583762854808508073,imu,-0.0251465030015,-0.0025024432689,-0.00445556966588,0.999695539474,0.0,0.0,0.0,0.0,0.0,0.0,0.0,0.0,0.0,0.0,0.0,0.0,0.0,0.0,0.0,0.0,0.0,0.0,0.0,0.0,0.0,-0.00781250279397,0.0,-0.0273437593132,0.0,0.0,0.0,0.0,0.0,0.0,0.0,0.0,0.0
1583762854898624973,625,1583762854848508073,imu,-0.0251465030015,-0.0025024432689,-0.00445556966588,0.999695539474,0.0,0.0,0.0,0.0,0.0,0.0,0.0,0.0,0.0,0.0,0.0,0.0,0.0,0.0,0.0,0.0,0.0,0.0,0.0,0.0,0.0,-0.00781250279397,0.0,-0.0195312574506,0.0,0.0,0.0,0.0,0.0,0.0,0.0,0.0,0.0
1583762854944055273,626,1583762854909508073,imu,-0.0249023623765,-0.0025024432689,-0.00445556966588,0.999695539474,0.0,0.0,0.0,0.0,0.0,0.0,0.0,0.0,0.0,0.0,0.0,0.0,0.0,0.0,0.0,0.0,0.0,0.0,0.0,0.0,0.0,-0.00781250279397,0.0,-0.0195312574506,0.0,0.0,0.0,0.0,0.0,0.0,0.0,0.0,0.0
1583762855001792646,627,1583762854948508073,imu,-0.0249023623765,-0.0025024432689,-0.00445556966588,0.999695539474,0.0,0.0,0.0,0.0,0.0,0.0,0.0,0.0,0.0,0.0,0.0,0.0,0.0,0.0,0.0,0.0,0.0,0.0,0.0,0.0,0.0,0.0312500111759,0.0,0.0195312574506,0.0,0.0,0.0,0.0,0.0,0.0,0.0,0.0,0.0
1583762855053240767,628,1583762855008508073,imu,-0.0246582198888,-0.0025024432689,-0.00439453450963,0.999695539474,0.0,0.0,0.0,0.0,0.0,0.0,0.0,0.0,0.0,0.0,0.0,0.0,0.0,0.0,0.0,0.0,0.0,0.0,0.0,0.0,0.0,0.0312500111759,0.0,0.0195312574506,0.0,0.0,0.0,0.0,0.0,0.0,0.0,0.0,0.0
1583762855099749125,629,1583762855048508073,imu,-0.0246582198888,-0.0025024432689,-0.00439453450963,0.999695539474,0.0,0.0,0.0,0.0,0.0,0.0,0.0,0.0,0.0,0.0,0.0,0.0,0.0,0.0,0.0,0.0,0.0,0.0,0.0,0.0,0.0,-0.00781250279397,0.0,-0.0195312574506,0.0,0.0,0.0,0.0,0.0,0.0,0.0,0.0,0.0
1583762855142889545,630,1583762855108508073,imu,-0.0244140792638,-0.00238037272356,-0.00445556966588,0.999695539474,0.0,0.0,0.0,0.0,0.0,0.0,0.0,0.0,0.0,0.0,0.0,0.0,0.0,0.0,0.0,0.0,0.0,0.0,0.0,0.0,0.0,-0.00781250279397,0.0,-0.0195312574506,0.0,0.0,0.0,0.0,0.0,0.0,0.0,0.0,0.0
1583762855196626588,631,1583762855148508073,imu,-0.0244140792638,-0.00238037272356,-0.00445556966588,0.999695539474,0.0,0.0,0.0,0.0,0.0,0.0,0.0,0.0,0.0,0.0,0.0,0.0,0.0,0.0,0.0,0.0,0.0,0.0,0.0,0.0,0.0,0.0312500111759,0.0,0.0195312574506,0.0,0.0,0.0,0.0,0.0,0.0,0.0,0.0,0.0
1583762855252960362,632,1583762855208508073,imu,-0.0242309737951,-0.00238037272356,-0.00445556966588,0.999695539474,0.0,0.0,0.0,0.0,0.0,0.0,0.0,0.0,0.0,0.0,0.0,0.0,0.0,0.0,0.0,0.0,0.0,0.0,0.0,0.0,0.0,0.0312500111759,0.0,0.0195312574506,0.0,0.0,0.0,0.0,0.0,0.0,0.0,0.0,0.0
1583762855289802404,633,1583762855247508073,imu,-0.0242309737951,-0.00238037272356,-0.00445556966588,0.999695539474,0.0,0.0,0.0,0.0,0.0,0.0,0.0,0.0,0.0,0.0,0.0,0.0,0.0,0.0,0.0,0.0,0.0,0.0,0.0,0.0,0.0,-0.0156250055879,0.0,-0.0195312574506,0.0,0.0,0.0,0.0,0.0,0.0,0.0,0.0,0.0
1583762855344126003,634,1583762855308508073,imu,-0.0241089034826,-0.00244140811265,-0.00445556966588,0.999695539474,0.0,0.0,0.0,0.0,0.0,0.0,0.0,0.0,0.0,0.0,0.0,0.0,0.0,0.0,0.0,0.0,0.0,0.0,0.0,0.0,0.0,-0.0156250055879,0.0,-0.0195312574506,0.0,0.0,0.0,0.0,0.0,0.0,0.0,0.0,0.0
1583762855396079250,635,1583762855348508073,imu,-0.0241089034826,-0.00244140811265,-0.00445556966588,0.999695539474,0.0,0.0,0.0,0.0,0.0,0.0,0.0,0.0,0.0,0.0,0.0,0.0,0.0,0.0,0.0,0.0,0.0,0.0,0.0,0.0,0.0,-0.0156250055879,0.0,0.0195312574506,0.0,0.0,0.0,0.0,0.0,0.0,0.0,0.0,0.0
1583762855456914654,636,1583762855408508073,imu,-0.0238647628576,-0.00244140811265,-0.00445556966588,0.999695539474,0.0,0.0,0.0,0.0,0.0,0.0,0.0,0.0,0.0,0.0,0.0,0.0,0.0,0.0,0.0,0.0,0.0,0.0,0.0,0.0,0.0,-0.0156250055879,0.0,0.0195312574506,0.0,0.0,0.0,0.0,0.0,0.0,0.0,0.0,0.0
1583762855487478409,637,1583762855448508073,imu,-0.0238647628576,-0.00244140811265,-0.00445556966588,0.999695539474,0.0,0.0,0.0,0.0,0.0,0.0,0.0,0.0,0.0,0.0,0.0,0.0,0.0,0.0,0.0,0.0,0.0,0.0,0.0,0.0,0.0,0.0234375074506,0.0,0.0117187537253,0.0,0.0,0.0,0.0,0.0,0.0,0.0,0.0,0.0
1583762855553560305,638,1583762855508508073,imu,-0.0237426925451,-0.0025024432689,-0.00451660482213,0.999695539474,0.0,0.0,0.0,0.0,0.0,0.0,0.0,0.0,0.0,0.0,0.0,0.0,0.0,0.0,0.0,0.0,0.0,0.0,0.0,0.0,0.0,0.0234375074506,0.0,0.0117187537253,0.0,0.0,0.0,0.0,0.0,0.0,0.0,0.0,0.0
1583762855590197482,639,1583762855547508073,imu,-0.0237426925451,-0.0025024432689,-0.00451660482213,0.999695539474,0.0,0.0,0.0,0.0,0.0,0.0,0.0,0.0,0.0,0.0,0.0,0.0,0.0,0.0,0.0,0.0,0.0,0.0,0.0,0.0,0.0,0.0234375074506,0.0,-0.0273437593132,0.0,0.0,0.0,0.0,0.0,0.0,0.0,0.0,0.0
1583762855653733421,640,1583762855608508073,imu,-0.0235595870763,-0.00256347842515,-0.00451660482213,0.999695539474,0.0,0.0,0.0,0.0,0.0,0.0,0.0,0.0,0.0,0.0,0.0,0.0,0.0,0.0,0.0,0.0,0.0,0.0,0.0,0.0,0.0,0.0234375074506,0.0,-0.0273437593132,0.0,0.0,0.0,0.0,0.0,0.0,0.0,0.0,0.0
1583762855699680984,641,1583762855648508073,imu,-0.0235595870763,-0.00256347842515,-0.00451660482213,0.999695539474,0.0,0.0,0.0,0.0,0.0,0.0,0.0,0.0,0.0,0.0,0.0,0.0,0.0,0.0,0.0,0.0,0.0,0.0,0.0,0.0,0.0,0.0156250055879,0.0,0.0117187537253,0.0,0.0,0.0,0.0,0.0,0.0,0.0,0.0,0.0
1583762855754068072,642,1583762855709508073,imu,-0.0234375167638,-0.0026245135814,-0.00445556966588,0.999695539474,0.0,0.0,0.0,0.0,0.0,0.0,0.0,0.0,0.0,0.0,0.0,0.0,0.0,0.0,0.0,0.0,0.0,0.0,0.0,0.0,0.0,0.0156250055879,0.0,0.0117187537253,0.0,0.0,0.0,0.0,0.0,0.0,0.0,0.0,0.0
1583762855816148667,643,1583762855749508073,imu,-0.0234375167638,-0.0026245135814,-0.00445556966588,0.999695539474,0.0,0.0,0.0,0.0,0.0,0.0,0.0,0.0,0.0,0.0,0.0,0.0,0.0,0.0,0.0,0.0,0.0,0.0,0.0,0.0,0.0,0.0156250055879,0.0,0.0117187537253,0.0,0.0,0.0,0.0,0.0,0.0,0.0,0.0,0.0
1583762855853085295,644,1583762855808508073,imu,-0.0233154464513,-0.0026245135814,-0.00451660482213,0.999695539474,0.0,0.0,0.0,0.0,0.0,0.0,0.0,0.0,0.0,0.0,0.0,0.0,0.0,0.0,0.0,0.0,0.0,0.0,0.0,0.0,0.0,0.0156250055879,0.0,0.0117187537253,0.0,0.0,0.0,0.0,0.0,0.0,0.0,0.0,0.0
1583762855908206802,645,1583762855848508073,imu,-0.0233154464513,-0.0026245135814,-0.00451660482213,0.999695539474,0.0,0.0,0.0,0.0,0.0,0.0,0.0,0.0,0.0,0.0,0.0,0.0,0.0,0.0,0.0,0.0,0.0,0.0,0.0,0.0,0.0,-0.0234375074506,0.0,0.0117187537253,0.0,0.0,0.0,0.0,0.0,0.0,0.0,0.0,0.0
1583762855961571983,646,1583762855908508073,imu,-0.0231933761388,-0.0026245135814,-0.00451660482213,0.999695539474,0.0,0.0,0.0,0.0,0.0,0.0,0.0,0.0,0.0,0.0,0.0,0.0,0.0,0.0,0.0,0.0,0.0,0.0,0.0,0.0,0.0,-0.0234375074506,0.0,0.0117187537253,0.0,0.0,0.0,0.0,0.0,0.0,0.0,0.0,0.0
1583762856021330909,647,1583762855948508073,imu,-0.0231933761388,-0.0026245135814,-0.00451660482213,0.999695539474,0.0,0.0,0.0,0.0,0.0,0.0,0.0,0.0,0.0,0.0,0.0,0.0,0.0,0.0,0.0,0.0,0.0,0.0,0.0,0.0,0.0,0.0156250055879,0.0,0.00390625139698,0.0,0.0,0.0,0.0,0.0,0.0,0.0,0.0,0.0
1583762856051299052,648,1583762856007508073,imu,-0.0231933761388,-0.00268554873765,-0.00451660482213,0.999695539474,0.0,0.0,0.0,0.0,0.0,0.0,0.0,0.0,0.0,0.0,0.0,0.0,0.0,0.0,0.0,0.0,0.0,0.0,0.0,0.0,0.0,0.0156250055879,0.0,0.00390625139698,0.0,0.0,0.0,0.0,0.0,0.0,0.0,0.0,0.0
1583762856098409481,649,1583762856047508073,imu,-0.0231933761388,-0.00268554873765,-0.00451660482213,0.999695539474,0.0,0.0,0.0,0.0,0.0,0.0,0.0,0.0,0.0,0.0,0.0,0.0,0.0,0.0,0.0,0.0,0.0,0.0,0.0,0.0,0.0,-0.0234375074506,0.0,-0.0273437593132,0.0,0.0,0.0,0.0,0.0,0.0,0.0,0.0,0.0
1583762856147785281,650,1583762856109508073,imu,-0.0230713058263,-0.0027465838939,-0.00457763997838,0.999695539474,0.0,0.0,0.0,0.0,0.0,0.0,0.0,0.0,0.0,0.0,0.0,0.0,0.0,0.0,0.0,0.0,0.0,0.0,0.0,0.0,0.0,-0.0234375074506,0.0,-0.0273437593132,0.0,0.0,0.0,0.0,0.0,0.0,0.0,0.0,0.0
1583762856202375438,651,1583762856148508073,imu,-0.0230713058263,-0.0027465838939,-0.00457763997838,0.999695539474,0.0,0.0,0.0,0.0,0.0,0.0,0.0,0.0,0.0,0.0,0.0,0.0,0.0,0.0,0.0,0.0,0.0,0.0,0.0,0.0,0.0,0.0156250055879,0.0,0.0117187537253,0.0,0.0,0.0,0.0,0.0,0.0,0.0,0.0,0.0
1583762856256650059,652,1583762856208508073,imu,-0.0230713058263,-0.00280761928298,-0.00451660482213,0.999695539474,0.0,0.0,0.0,0.0,0.0,0.0,0.0,0.0,0.0,0.0,0.0,0.0,0.0,0.0,0.0,0.0,0.0,0.0,0.0,0.0,0.0,0.0156250055879,0.0,0.0117187537253,0.0,0.0,0.0,0.0,0.0,0.0,0.0,0.0,0.0
1583762856299111875,653,1583762856248508073,imu,-0.0230713058263,-0.00280761928298,-0.00451660482213,0.999695539474,0.0,0.0,0.0,0.0,0.0,0.0,0.0,0.0,0.0,0.0,0.0,0.0,0.0,0.0,0.0,0.0,0.0,0.0,0.0,0.0,0.0,0.00781250279397,0.0,0.0117187537253,0.0,0.0,0.0,0.0,0.0,0.0,0.0,0.0,0.0
1583762856354487414,654,1583762856307508073,imu,-0.0230102706701,-0.00286865443923,-0.00451660482213,0.999695539474,0.0,0.0,0.0,0.0,0.0,0.0,0.0,0.0,0.0,0.0,0.0,0.0,0.0,0.0,0.0,0.0,0.0,0.0,0.0,0.0,0.0,0.00781250279397,0.0,0.0117187537253,0.0,0.0,0.0,0.0,0.0,0.0,0.0,0.0,0.0
1583762856398915908,655,1583762856347508073,imu,-0.0230102706701,-0.00286865443923,-0.00451660482213,0.999695539474,0.0,0.0,0.0,0.0,0.0,0.0,0.0,0.0,0.0,0.0,0.0,0.0,0.0,0.0,0.0,0.0,0.0,0.0,0.0,0.0,0.0,-0.0312500111759,-0.00781250279397,0.0117187537253,0.0,0.0,0.0,0.0,0.0,0.0,0.0,0.0,0.0
1583762856544951815,656,1583762856408508073,imu,-0.0228882003576,-0.00280761928298,-0.00451660482213,0.999695539474,0.0,0.0,0.0,0.0,0.0,0.0,0.0,0.0,0.0,0.0,0.0,0.0,0.0,0.0,0.0,0.0,0.0,0.0,0.0,0.0,0.0,-0.0312500111759,-0.00781250279397,0.0117187537253,0.0,0.0,0.0,0.0,0.0,0.0,0.0,0.0,0.0
1583762856544977965,657,1583762856448508073,imu,-0.0228882003576,-0.00280761928298,-0.00451660482213,0.999695539474,0.0,0.0,0.0,0.0,0.0,0.0,0.0,0.0,0.0,0.0,0.0,0.0,0.0,0.0,0.0,0.0,0.0,0.0,0.0,0.0,0.0,0.0156250055879,-0.00781250279397,0.00390625139698,0.0,0.0,0.0,0.0,0.0,0.0,0.0,0.0,0.0
1583762856561748241,658,1583762856508508073,imu,-0.0227050948888,-0.00286865443923,-0.00451660482213,0.999756574631,0.0,0.0,0.0,0.0,0.0,0.0,0.0,0.0,0.0,0.0,0.0,0.0,0.0,0.0,0.0,0.0,0.0,0.0,0.0,0.0,0.0,0.0156250055879,-0.00781250279397,0.00390625139698,0.0,0.0,0.0,0.0,0.0,0.0,0.0,0.0,0.0
1583762856687483620,659,1583762856550508073,imu,-0.0227050948888,-0.00286865443923,-0.00451660482213,0.999756574631,0.0,0.0,0.0,0.0,0.0,0.0,0.0,0.0,0.0,0.0,0.0,0.0,0.0,0.0,0.0,0.0,0.0,0.0,0.0,0.0,0.0,-0.0234375074506,-0.00781250279397,-0.0273437593132,0.0,0.0,0.0,0.0,0.0,0.0,0.0,0.0,0.0
1583762856687497346,660,1583762856612428007,imu,-0.0225830245763,-0.00292968959548,-0.00457763997838,0.999756574631,0.0,0.0,0.0,0.0,0.0,0.0,0.0,0.0,0.0,0.0,0.0,0.0,0.0,0.0,0.0,0.0,0.0,0.0,0.0,0.0,0.0,-0.0234375074506,-0.00781250279397,-0.0273437593132,0.0,0.0,0.0,0.0,0.0,0.0,0.0,0.0,0.0
1583762856716387407,661,1583762856652428007,imu,-0.0225830245763,-0.00292968959548,-0.00457763997838,0.999756574631,0.0,0.0,0.0,0.0,0.0,0.0,0.0,0.0,0.0,0.0,0.0,0.0,0.0,0.0,0.0,0.0,0.0,0.0,0.0,0.0,0.0,-0.0156250055879,0.0,0.0117187537253,0.0,0.0,0.0,0.0,0.0,0.0,0.0,0.0,0.0
1583762856852623126,662,1583762856713428007,imu,-0.0226440597326,-0.00286865443923,-0.00457763997838,0.999756574631,0.0,0.0,0.0,0.0,0.0,0.0,0.0,0.0,0.0,0.0,0.0,0.0,0.0,0.0,0.0,0.0,0.0,0.0,0.0,0.0,0.0,-0.0156250055879,0.0,0.0117187537253,0.0,0.0,0.0,0.0,0.0,0.0,0.0,0.0,0.0
1583762856852648082,663,1583762856753428007,imu,-0.0226440597326,-0.00286865443923,-0.00457763997838,0.999756574631,0.0,0.0,0.0,0.0,0.0,0.0,0.0,0.0,0.0,0.0,0.0,0.0,0.0,0.0,0.0,0.0,0.0,0.0,0.0,0.0,0.0,0.0312500111759,0.0,0.0117187537253,0.0,0.0,0.0,0.0,0.0,0.0,0.0,0.0,0.0
1583762856982563576,664,1583762856813428007,imu,-0.0226440597326,-0.00280761928298,-0.00457763997838,0.999756574631,0.0,0.0,0.0,0.0,0.0,0.0,0.0,0.0,0.0,0.0,0.0,0.0,0.0,0.0,0.0,0.0,0.0,0.0,0.0,0.0,0.0,0.0312500111759,0.0,0.0117187537253,0.0,0.0,0.0,0.0,0.0,0.0,0.0,0.0,0.0
1583762857019085366,665,1583762856853428007,imu,-0.0226440597326,-0.00280761928298,-0.00457763997838,0.999756574631,0.0,0.0,0.0,0.0,0.0,0.0,0.0,0.0,0.0,0.0,0.0,0.0,0.0,0.0,0.0,0.0,0.0,0.0,0.0,0.0,0.0,0.0234375074506,0.0,-0.0273437593132,0.0,0.0,0.0,0.0,0.0,0.0,0.0,0.0,0.0
1583762857019118728,666,1583762856912428007,imu,-0.0227050948888,-0.0027465838939,-0.00457763997838,0.999756574631,0.0,0.0,0.0,0.0,0.0,0.0,0.0,0.0,0.0,0.0,0.0,0.0,0.0,0.0,0.0,0.0,0.0,0.0,0.0,0.0,0.0,0.0234375074506,0.0,-0.0273437593132,0.0,0.0,0.0,0.0,0.0,0.0,0.0,0.0,0.0
1583762857019151345,667,1583762856952428007,imu,-0.0227050948888,-0.0027465838939,-0.00457763997838,0.999756574631,0.0,0.0,0.0,0.0,0.0,0.0,0.0,0.0,0.0,0.0,0.0,0.0,0.0,0.0,0.0,0.0,0.0,0.0,0.0,0.0,0.0,0.0234375074506,0.0,0.0117187537253,0.0,0.0,0.0,0.0,0.0,0.0,0.0,0.0,0.0
1583762857165924366,668,1583762857013428007,imu,-0.0227050948888,-0.00268554873765,-0.00463867513463,0.999756574631,0.0,0.0,0.0,0.0,0.0,0.0,0.0,0.0,0.0,0.0,0.0,0.0,0.0,0.0,0.0,0.0,0.0,0.0,0.0,0.0,0.0,0.0234375074506,0.0,0.0117187537253,0.0,0.0,0.0,0.0,0.0,0.0,0.0,0.0,0.0
1583762857177543492,669,1583762857053428007,imu,-0.0227050948888,-0.00268554873765,-0.00463867513463,0.999756574631,0.0,0.0,0.0,0.0,0.0,0.0,0.0,0.0,0.0,0.0,0.0,0.0,0.0,0.0,0.0,0.0,0.0,0.0,0.0,0.0,0.0,0.0156250055879,0.0,0.0117187537253,0.0,0.0,0.0,0.0,0.0,0.0,0.0,0.0,0.0
1583762857177584296,670,1583762857112428007,imu,-0.0226440597326,-0.0027465838939,-0.00463867513463,0.999756574631,0.0,0.0,0.0,0.0,0.0,0.0,0.0,0.0,0.0,0.0,0.0,0.0,0.0,0.0,0.0,0.0,0.0,0.0,0.0,0.0,0.0,0.0156250055879,0.0,0.0117187537253,0.0,0.0,0.0,0.0,0.0,0.0,0.0,0.0,0.0
1583762857316719247,671,1583762857152428007,imu,-0.0226440597326,-0.0027465838939,-0.00463867513463,0.999756574631,0.0,0.0,0.0,0.0,0.0,0.0,0.0,0.0,0.0,0.0,0.0,0.0,0.0,0.0,0.0,0.0,0.0,0.0,0.0,0.0,0.0,0.00781250279397,0.0,0.0117187537253,0.0,0.0,0.0,0.0,0.0,0.0,0.0,0.0,0.0
1583762857325373362,672,1583762857212428007,imu,-0.0226440597326,-0.00286865443923,-0.00463867513463,0.999756574631,0.0,0.0,0.0,0.0,0.0,0.0,0.0,0.0,0.0,0.0,0.0,0.0,0.0,0.0,0.0,0.0,0.0,0.0,0.0,0.0,0.0,0.00781250279397,0.0,0.0117187537253,0.0,0.0,0.0,0.0,0.0,0.0,0.0,0.0,0.0
1583762857325402140,673,1583762857252428007,imu,-0.0226440597326,-0.00286865443923,-0.00463867513463,0.999756574631,0.0,0.0,0.0,0.0,0.0,0.0,0.0,0.0,0.0,0.0,0.0,0.0,0.0,0.0,0.0,0.0,0.0,0.0,0.0,0.0,0.0,0.00781250279397,0.0,0.00390625139698,0.0,0.0,0.0,0.0,0.0,0.0,0.0,0.0,0.0
1583762857390361165,674,1583762857313428007,imu,-0.0226440597326,-0.00292968959548,-0.00469971029088,0.999756574631,0.0,0.0,0.0,0.0,0.0,0.0,0.0,0.0,0.0,0.0,0.0,0.0,0.0,0.0,0.0,0.0,0.0,0.0,0.0,0.0,0.0,0.00781250279397,0.0,0.00390625139698,0.0,0.0,0.0,0.0,0.0,0.0,0.0,0.0,0.0
1583762857400837126,675,1583762857353428007,imu,-0.0226440597326,-0.00292968959548,-0.00469971029088,0.999756574631,0.0,0.0,0.0,0.0,0.0,0.0,0.0,0.0,0.0,0.0,0.0,0.0,0.0,0.0,0.0,0.0,0.0,0.0,0.0,0.0,0.0,0.00781250279397,0.0,-0.0273437593132,0.0,0.0,0.0,0.0,0.0,0.0,0.0,0.0,0.0
1583762857533310863,676,1583762857412428007,imu,-0.0227050948888,-0.00292968959548,-0.00469971029088,0.999756574631,0.0,0.0,0.0,0.0,0.0,0.0,0.0,0.0,0.0,0.0,0.0,0.0,0.0,0.0,0.0,0.0,0.0,0.0,0.0,0.0,0.0,0.00781250279397,0.0,-0.0273437593132,0.0,0.0,0.0,0.0,0.0,0.0,0.0,0.0,0.0
1583762857550238666,677,1583762857452428007,imu,-0.0227050948888,-0.00292968959548,-0.00469971029088,0.999756574631,0.0,0.0,0.0,0.0,0.0,0.0,0.0,0.0,0.0,0.0,0.0,0.0,0.0,0.0,0.0,0.0,0.0,0.0,0.0,0.0,0.0,0.00781250279397,0.0,0.0117187537253,0.0,0.0,0.0,0.0,0.0,0.0,0.0,0.0,0.0
1583762857550254387,678,1583762857513428007,imu,-0.0227050948888,-0.00299072475173,-0.00469971029088,0.999756574631,0.0,0.0,0.0,0.0,0.0,0.0,0.0,0.0,0.0,0.0,0.0,0.0,0.0,0.0,0.0,0.0,0.0,0.0,0.0,0.0,0.0,0.00781250279397,0.0,0.0117187537253,0.0,0.0,0.0,0.0,0.0,0.0,0.0,0.0,0.0
1583762857592473436,679,1583762857552428007,imu,-0.0227050948888,-0.00299072475173,-0.00469971029088,0.999756574631,0.0,0.0,0.0,0.0,0.0,0.0,0.0,0.0,0.0,0.0,0.0,0.0,0.0,0.0,0.0,0.0,0.0,0.0,0.0,0.0,0.0,0.00781250279397,0.0,0.0117187537253,0.0,0.0,0.0,0.0,0.0,0.0,0.0,0.0,0.0
1583762857650770863,680,1583762857613428007,imu,-0.0227661300451,-0.00305175990798,-0.00469971029088,0.999695539474,0.0,0.0,0.0,0.0,0.0,0.0,0.0,0.0,0.0,0.0,0.0,0.0,0.0,0.0,0.0,0.0,0.0,0.0,0.0,0.0,0.0,0.00781250279397,0.0,0.0117187537253,0.0,0.0,0.0,0.0,0.0,0.0,0.0,0.0,0.0
1583762857691029583,681,1583762857653428007,imu,-0.0227661300451,-0.00305175990798,-0.00469971029088,0.999695539474,0.0,0.0,0.0,0.0,0.0,0.0,0.0,0.0,0.0,0.0,0.0,0.0,0.0,0.0,0.0,0.0,0.0,0.0,0.0,0.0,0.0,0.0,0.0,-0.0273437593132,0.0,0.0,0.0,0.0,0.0,0.0,0.0,0.0,0.0
1583762857750264358,682,1583762857713428007,imu,-0.0227050948888,-0.00311279529706,-0.00476074544713,0.999756574631,0.0,0.0,0.0,0.0,0.0,0.0,0.0,0.0,0.0,0.0,0.0,0.0,0.0,0.0,0.0,0.0,0.0,0.0,0.0,0.0,0.0,0.0,0.0,-0.0273437593132,0.0,0.0,0.0,0.0,0.0,0.0,0.0,0.0,0.0
1583762857793221542,683,1583762857753428007,imu,-0.0227050948888,-0.00311279529706,-0.00476074544713,0.999756574631,0.0,0.0,0.0,0.0,0.0,0.0,0.0,0.0,0.0,0.0,0.0,0.0,0.0,0.0,0.0,0.0,0.0,0.0,0.0,0.0,0.0,0.00781250279397,0.0,0.0117187537253,0.0,0.0,0.0,0.0,0.0,0.0,0.0,0.0,0.0
1583762857854091502,684,1583762857812428007,imu,-0.0227661300451,-0.00311279529706,-0.00476074544713,0.999695539474,0.0,0.0,0.0,0.0,0.0,0.0,0.0,0.0,0.0,0.0,0.0,0.0,0.0,0.0,0.0,0.0,0.0,0.0,0.0,0.0,0.0,0.00781250279397,0.0,0.0117187537253,0.0,0.0,0.0,0.0,0.0,0.0,0.0,0.0,0.0
1583762857892269608,685,1583762857852428007,imu,-0.0227661300451,-0.00311279529706,-0.00476074544713,0.999695539474,0.0,0.0,0.0,0.0,0.0,0.0,0.0,0.0,0.0,0.0,0.0,0.0,0.0,0.0,0.0,0.0,0.0,0.0,0.0,0.0,0.0,0.00781250279397,0.0,-0.0273437593132,0.0,0.0,0.0,0.0,0.0,0.0,0.0,0.0,0.0
1583762857953535279,686,1583762857913428007,imu,-0.0227661300451,-0.00317383045331,-0.00476074544713,0.999695539474,0.0,0.0,0.0,0.0,0.0,0.0,0.0,0.0,0.0,0.0,0.0,0.0,0.0,0.0,0.0,0.0,0.0,0.0,0.0,0.0,0.0,0.00781250279397,0.0,-0.0273437593132,0.0,0.0,0.0,0.0,0.0,0.0,0.0,0.0,0.0
1583762857994399706,687,1583762857953428007,imu,-0.0227661300451,-0.00317383045331,-0.00476074544713,0.999695539474,0.0,0.0,0.0,0.0,0.0,0.0,0.0,0.0,0.0,0.0,0.0,0.0,0.0,0.0,0.0,0.0,0.0,0.0,0.0,0.0,0.0,-0.0312500111759,0.0,0.0117187537253,0.0,0.0,0.0,0.0,0.0,0.0,0.0,0.0,0.0
1583762858054453750,688,1583762858013428007,imu,-0.0227050948888,-0.00317383045331,-0.00482178060338,0.999695539474,0.0,0.0,0.0,0.0,0.0,0.0,0.0,0.0,0.0,0.0,0.0,0.0,0.0,0.0,0.0,0.0,0.0,0.0,0.0,0.0,0.0,-0.0312500111759,0.0,0.0117187537253,0.0,0.0,0.0,0.0,0.0,0.0,0.0,0.0,0.0
1583762858093296553,689,1583762858052428007,imu,-0.0227050948888,-0.00317383045331,-0.00482178060338,0.999695539474,0.0,0.0,0.0,0.0,0.0,0.0,0.0,0.0,0.0,0.0,0.0,0.0,0.0,0.0,0.0,0.0,0.0,0.0,0.0,0.0,0.0,-0.0234375074506,0.0,-0.0195312574506,0.0,0.0,0.0,0.0,0.0,0.0,0.0,0.0,0.0
1583762858156069304,690,1583762858112428007,imu,-0.0227661300451,-0.00323486560956,-0.00482178060338,0.999695539474,0.0,0.0,0.0,0.0,0.0,0.0,0.0,0.0,0.0,0.0,0.0,0.0,0.0,0.0,0.0,0.0,0.0,0.0,0.0,0.0,0.0,-0.0234375074506,0.0,-0.0195312574506,0.0,0.0,0.0,0.0,0.0,0.0,0.0,0.0,0.0
1583762858195051460,691,1583762858152428007,imu,-0.0227661300451,-0.00323486560956,-0.00482178060338,0.999695539474,0.0,0.0,0.0,0.0,0.0,0.0,0.0,0.0,0.0,0.0,0.0,0.0,0.0,0.0,0.0,0.0,0.0,0.0,0.0,0.0,0.0,0.0156250055879,0.0,0.0195312574506,0.0,0.0,0.0,0.0,0.0,0.0,0.0,0.0,0.0
1583762858249062217,692,1583762858213428007,imu,-0.0227661300451,-0.00323486560956,-0.00482178060338,0.999695539474,0.0,0.0,0.0,0.0,0.0,0.0,0.0,0.0,0.0,0.0,0.0,0.0,0.0,0.0,0.0,0.0,0.0,0.0,0.0,0.0,0.0,0.0156250055879,0.0,0.0195312574506,0.0,0.0,0.0,0.0,0.0,0.0,0.0,0.0,0.0
1583762858295210535,693,1583762858252428007,imu,-0.0227661300451,-0.00323486560956,-0.00482178060338,0.999695539474,0.0,0.0,0.0,0.0,0.0,0.0,0.0,0.0,0.0,0.0,0.0,0.0,0.0,0.0,0.0,0.0,0.0,0.0,0.0,0.0,0.0,0.00781250279397,0.0,0.0117187537253,0.0,0.0,0.0,0.0,0.0,0.0,0.0,0.0,0.0
1583762858350391421,694,1583762858313428007,imu,-0.0227050948888,-0.00323486560956,-0.00482178060338,0.999695539474,0.0,0.0,0.0,0.0,0.0,0.0,0.0,0.0,0.0,0.0,0.0,0.0,0.0,0.0,0.0,0.0,0.0,0.0,0.0,0.0,0.0,0.00781250279397,0.0,0.0117187537253,0.0,0.0,0.0,0.0,0.0,0.0,0.0,0.0,0.0
1583762858396752884,695,1583762858352428007,imu,-0.0227050948888,-0.00323486560956,-0.00482178060338,0.999695539474,0.0,0.0,0.0,0.0,0.0,0.0,0.0,0.0,0.0,0.0,0.0,0.0,0.0,0.0,0.0,0.0,0.0,0.0,0.0,0.0,0.0,0.00781250279397,0.0,-0.0273437593132,0.0,0.0,0.0,0.0,0.0,0.0,0.0,0.0,0.0
1583762858449061107,696,1583762858413428007,imu,-0.0227050948888,-0.00323486560956,-0.00482178060338,0.999695539474,0.0,0.0,0.0,0.0,0.0,0.0,0.0,0.0,0.0,0.0,0.0,0.0,0.0,0.0,0.0,0.0,0.0,0.0,0.0,0.0,0.0,0.00781250279397,0.0,-0.0273437593132,0.0,0.0,0.0,0.0,0.0,0.0,0.0,0.0,0.0
1583762858494056101,697,1583762858452428007,imu,-0.0227050948888,-0.00323486560956,-0.00482178060338,0.999695539474,0.0,0.0,0.0,0.0,0.0,0.0,0.0,0.0,0.0,0.0,0.0,0.0,0.0,0.0,0.0,0.0,0.0,0.0,0.0,0.0,0.0,-0.0312500111759,0.0,0.0117187537253,0.0,0.0,0.0,0.0,0.0,0.0,0.0,0.0,0.0
1583762858550917082,698,1583762858513428007,imu,-0.0227050948888,-0.00323486560956,-0.00482178060338,0.999695539474,0.0,0.0,0.0,0.0,0.0,0.0,0.0,0.0,0.0,0.0,0.0,0.0,0.0,0.0,0.0,0.0,0.0,0.0,0.0,0.0,0.0,-0.0312500111759,0.0,0.0117187537253,0.0,0.0,0.0,0.0,0.0,0.0,0.0,0.0,0.0
1583762858600955508,699,1583762858554428007,imu,-0.0227050948888,-0.00323486560956,-0.00482178060338,0.999695539474,0.0,0.0,0.0,0.0,0.0,0.0,0.0,0.0,0.0,0.0,0.0,0.0,0.0,0.0,0.0,0.0,0.0,0.0,0.0,0.0,0.0,-0.0234375074506,0.0,-0.0273437593132,0.0,0.0,0.0,0.0,0.0,0.0,0.0,0.0,0.0
1583762858649523863,700,1583762858613428007,imu,-0.0227050948888,-0.00323486560956,-0.00482178060338,0.999695539474,0.0,0.0,0.0,0.0,0.0,0.0,0.0,0.0,0.0,0.0,0.0,0.0,0.0,0.0,0.0,0.0,0.0,0.0,0.0,0.0,0.0,-0.0234375074506,0.0,-0.0273437593132,0.0,0.0,0.0,0.0,0.0,0.0,0.0,0.0,0.0
1583762858695678610,701,1583762858652428007,imu,-0.0227050948888,-0.00323486560956,-0.00482178060338,0.999695539474,0.0,0.0,0.0,0.0,0.0,0.0,0.0,0.0,0.0,0.0,0.0,0.0,0.0,0.0,0.0,0.0,0.0,0.0,0.0,0.0,0.0,0.0156250055879,0.0,0.0195312574506,0.0,0.0,0.0,0.0,0.0,0.0,0.0,0.0,0.0
1583762858753728538,702,1583762858713428007,imu,-0.0227050948888,-0.00317383045331,-0.00482178060338,0.999695539474,0.0,0.0,0.0,0.0,0.0,0.0,0.0,0.0,0.0,0.0,0.0,0.0,0.0,0.0,0.0,0.0,0.0,0.0,0.0,0.0,0.0,0.0156250055879,0.0,0.0195312574506,0.0,0.0,0.0,0.0,0.0,0.0,0.0,0.0,0.0
1583762858796788702,703,1583762858752428007,imu,-0.0227050948888,-0.00317383045331,-0.00482178060338,0.999695539474,0.0,0.0,0.0,0.0,0.0,0.0,0.0,0.0,0.0,0.0,0.0,0.0,0.0,0.0,0.0,0.0,0.0,0.0,0.0,0.0,0.0,0.00781250279397,0.0,0.0117187537253,0.0,0.0,0.0,0.0,0.0,0.0,0.0,0.0,0.0
1583762858849595428,704,1583762858812428007,imu,-0.0227050948888,-0.00323486560956,-0.00482178060338,0.999695539474,0.0,0.0,0.0,0.0,0.0,0.0,0.0,0.0,0.0,0.0,0.0,0.0,0.0,0.0,0.0,0.0,0.0,0.0,0.0,0.0,0.0,0.00781250279397,0.0,0.0117187537253,0.0,0.0,0.0,0.0,0.0,0.0,0.0,0.0,0.0
1583762858901907868,705,1583762858852428007,imu,-0.0227050948888,-0.00323486560956,-0.00482178060338,0.999695539474,0.0,0.0,0.0,0.0,0.0,0.0,0.0,0.0,0.0,0.0,0.0,0.0,0.0,0.0,0.0,0.0,0.0,0.0,0.0,0.0,0.0,0.00781250279397,0.0,-0.0273437593132,0.0,0.0,0.0,0.0,0.0,0.0,0.0,0.0,0.0
1583762858953499910,706,1583762858912428007,imu,-0.0227050948888,-0.00323486560956,-0.00482178060338,0.999695539474,0.0,0.0,0.0,0.0,0.0,0.0,0.0,0.0,0.0,0.0,0.0,0.0,0.0,0.0,0.0,0.0,0.0,0.0,0.0,0.0,0.0,0.00781250279397,0.0,-0.0273437593132,0.0,0.0,0.0,0.0,0.0,0.0,0.0,0.0,0.0
1583762858994140049,707,1583762858952428007,imu,-0.0227050948888,-0.00323486560956,-0.00482178060338,0.999695539474,0.0,0.0,0.0,0.0,0.0,0.0,0.0,0.0,0.0,0.0,0.0,0.0,0.0,0.0,0.0,0.0,0.0,0.0,0.0,0.0,0.0,-0.0312500111759,0.0,0.0117187537253,0.0,0.0,0.0,0.0,0.0,0.0,0.0,0.0,0.0
1583762859050592074,708,1583762859013428007,imu,-0.0227050948888,-0.00323486560956,-0.00482178060338,0.999695539474,0.0,0.0,0.0,0.0,0.0,0.0,0.0,0.0,0.0,0.0,0.0,0.0,0.0,0.0,0.0,0.0,0.0,0.0,0.0,0.0,0.0,-0.0312500111759,0.0,0.0117187537253,0.0,0.0,0.0,0.0,0.0,0.0,0.0,0.0,0.0
1583762859096046338,709,1583762859053428007,imu,-0.0227050948888,-0.00323486560956,-0.00482178060338,0.999695539474,0.0,0.0,0.0,0.0,0.0,0.0,0.0,0.0,0.0,0.0,0.0,0.0,0.0,0.0,0.0,0.0,0.0,0.0,0.0,0.0,0.0,0.0156250055879,0.0,0.0117187537253,0.0,0.0,0.0,0.0,0.0,0.0,0.0,0.0,0.0
1583762859153788135,710,1583762859113428007,imu,-0.0227050948888,-0.00317383045331,-0.00482178060338,0.999695539474,0.0,0.0,0.0,0.0,0.0,0.0,0.0,0.0,0.0,0.0,0.0,0.0,0.0,0.0,0.0,0.0,0.0,0.0,0.0,0.0,0.0,0.0156250055879,0.0,0.0117187537253,0.0,0.0,0.0,0.0,0.0,0.0,0.0,0.0,0.0
1583762859203270284,711,1583762859157889921,imu,-0.0227050948888,-0.00317383045331,-0.00482178060338,0.999695539474,0.0,0.0,0.0,0.0,0.0,0.0,0.0,0.0,0.0,0.0,0.0,0.0,0.0,0.0,0.0,0.0,0.0,0.0,0.0,0.0,0.0,0.0156250055879,0.0,0.0117187537253,0.0,0.0,0.0,0.0,0.0,0.0,0.0,0.0,0.0
1583762859250633410,712,1583762859216889921,imu,-0.0227050948888,-0.00317383045331,-0.00482178060338,0.999695539474,0.0,0.0,0.0,0.0,0.0,0.0,0.0,0.0,0.0,0.0,0.0,0.0,0.0,0.0,0.0,0.0,0.0,0.0,0.0,0.0,0.0,0.0156250055879,0.0,0.0117187537253,0.0,0.0,0.0,0.0,0.0,0.0,0.0,0.0,0.0
1583762859295633629,713,1583762859256889921,imu,-0.0227050948888,-0.00317383045331,-0.00482178060338,0.999695539474,0.0,0.0,0.0,0.0,0.0,0.0,0.0,0.0,0.0,0.0,0.0,0.0,0.0,0.0,0.0,0.0,0.0,0.0,0.0,0.0,0.0,0.00781250279397,0.0,0.00390625139698,0.0,0.0,0.0,0.0,0.0,0.0,0.0,0.0,0.0
1583762859354493588,714,1583762859317889921,imu,-0.0227050948888,-0.00323486560956,-0.00482178060338,0.999695539474,0.0,0.0,0.0,0.0,0.0,0.0,0.0,0.0,0.0,0.0,0.0,0.0,0.0,0.0,0.0,0.0,0.0,0.0,0.0,0.0,0.0,0.00781250279397,0.0,0.00390625139698,0.0,0.0,0.0,0.0,0.0,0.0,0.0,0.0,0.0
1583762859394831890,715,1583762859357889921,imu,-0.0227050948888,-0.00323486560956,-0.00482178060338,0.999695539474,0.0,0.0,0.0,0.0,0.0,0.0,0.0,0.0,0.0,0.0,0.0,0.0,0.0,0.0,0.0,0.0,0.0,0.0,0.0,0.0,0.0,0.00781250279397,0.0,0.00390625139698,0.0,0.0,0.0,0.0,0.0,0.0,0.0,0.0,0.0
1583762859451647766,716,1583762859417889921,imu,-0.0227050948888,-0.00323486560956,-0.00482178060338,0.999695539474,0.0,0.0,0.0,0.0,0.0,0.0,0.0,0.0,0.0,0.0,0.0,0.0,0.0,0.0,0.0,0.0,0.0,0.0,0.0,0.0,0.0,0.00781250279397,0.0,0.00390625139698,0.0,0.0,0.0,0.0,0.0,0.0,0.0,0.0,0.0
1583762859503844708,717,1583762859457889921,imu,-0.0227050948888,-0.00323486560956,-0.00482178060338,0.999695539474,0.0,0.0,0.0,0.0,0.0,0.0,0.0,0.0,0.0,0.0,0.0,0.0,0.0,0.0,0.0,0.0,0.0,0.0,0.0,0.0,0.0,-0.0312500111759,0.0,0.00390625139698,0.0,0.0,0.0,0.0,0.0,0.0,0.0,0.0,0.0
1583762859550451165,718,1583762859516889921,imu,-0.0227050948888,-0.00317383045331,-0.00482178060338,0.999695539474,0.0,0.0,0.0,0.0,0.0,0.0,0.0,0.0,0.0,0.0,0.0,0.0,0.0,0.0,0.0,0.0,0.0,0.0,0.0,0.0,0.0,-0.0312500111759,0.0,0.00390625139698,0.0,0.0,0.0,0.0,0.0,0.0,0.0,0.0,0.0
1583762859596025724,719,1583762859556889921,imu,-0.0227050948888,-0.00317383045331,-0.00482178060338,0.999695539474,0.0,0.0,0.0,0.0,0.0,0.0,0.0,0.0,0.0,0.0,0.0,0.0,0.0,0.0,0.0,0.0,0.0,0.0,0.0,0.0,0.0,0.0156250055879,0.0,0.00390625139698,0.0,0.0,0.0,0.0,0.0,0.0,0.0,0.0,0.0
1583762859656234446,720,1583762859617889921,imu,-0.0226440597326,-0.00317383045331,-0.00476074544713,0.999756574631,0.0,0.0,0.0,0.0,0.0,0.0,0.0,0.0,0.0,0.0,0.0,0.0,0.0,0.0,0.0,0.0,0.0,0.0,0.0,0.0,0.0,0.0156250055879,0.0,0.00390625139698,0.0,0.0,0.0,0.0,0.0,0.0,0.0,0.0,0.0
1583762859698580544,721,1583762859657889921,imu,-0.0226440597326,-0.00317383045331,-0.00476074544713,0.999756574631,0.0,0.0,0.0,0.0,0.0,0.0,0.0,0.0,0.0,0.0,0.0,0.0,0.0,0.0,0.0,0.0,0.0,0.0,0.0,0.0,0.0,0.0156250055879,0.0,-0.0351562611759,0.0,0.0,0.0,0.0,0.0,0.0,0.0,0.0,0.0
1583762859750551131,722,1583762859717889921,imu,-0.0227050948888,-0.00323486560956,-0.00469971029088,0.999756574631,0.0,0.0,0.0,0.0,0.0,0.0,0.0,0.0,0.0,0.0,0.0,0.0,0.0,0.0,0.0,0.0,0.0,0.0,0.0,0.0,0.0,0.0156250055879,0.0,-0.0351562611759,0.0,0.0,0.0,0.0,0.0,0.0,0.0,0.0,0.0
1583762859802900450,723,1583762859757889921,imu,-0.0227050948888,-0.00323486560956,-0.00469971029088,0.999756574631,0.0,0.0,0.0,0.0,0.0,0.0,0.0,0.0,0.0,0.0,0.0,0.0,0.0,0.0,0.0,0.0,0.0,0.0,0.0,0.0,0.0,0.00781250279397,0.0,0.0117187537253,0.0,0.0,0.0,0.0,0.0,0.0,0.0,0.0,0.0
1583762859860870183,724,1583762859816889921,imu,-0.0227050948888,-0.00323486560956,-0.00469971029088,0.999756574631,0.0,0.0,0.0,0.0,0.0,0.0,0.0,0.0,0.0,0.0,0.0,0.0,0.0,0.0,0.0,0.0,0.0,0.0,0.0,0.0,0.0,0.00781250279397,0.0,0.0117187537253,0.0,0.0,0.0,0.0,0.0,0.0,0.0,0.0,0.0
1583762859899316069,725,1583762859856889921,imu,-0.0227050948888,-0.00323486560956,-0.00469971029088,0.999756574631,0.0,0.0,0.0,0.0,0.0,0.0,0.0,0.0,0.0,0.0,0.0,0.0,0.0,0.0,0.0,0.0,0.0,0.0,0.0,0.0,0.0,-0.0312500111759,0.0,-0.0273437593132,0.0,0.0,0.0,0.0,0.0,0.0,0.0,0.0,0.0
1583762859952672094,726,1583762859917889921,imu,-0.0226440597326,-0.00323486560956,-0.00476074544713,0.999756574631,0.0,0.0,0.0,0.0,0.0,0.0,0.0,0.0,0.0,0.0,0.0,0.0,0.0,0.0,0.0,0.0,0.0,0.0,0.0,0.0,0.0,-0.0312500111759,0.0,-0.0273437593132,0.0,0.0,0.0,0.0,0.0,0.0,0.0,0.0,0.0
1583762860001140183,727,1583762859956889921,imu,-0.0226440597326,-0.00323486560956,-0.00476074544713,0.999756574631,0.0,0.0,0.0,0.0,0.0,0.0,0.0,0.0,0.0,0.0,0.0,0.0,0.0,0.0,0.0,0.0,0.0,0.0,0.0,0.0,0.0,0.0156250055879,0.0,0.0117187537253,0.0,0.0,0.0,0.0,0.0,0.0,0.0,0.0,0.0
1583762860057898749,728,1583762860016889921,imu,-0.0226440597326,-0.00317383045331,-0.00476074544713,0.999756574631,0.0,0.0,0.0,0.0,0.0,0.0,0.0,0.0,0.0,0.0,0.0,0.0,0.0,0.0,0.0,0.0,0.0,0.0,0.0,0.0,0.0,0.0156250055879,0.0,0.0117187537253,0.0,0.0,0.0,0.0,0.0,0.0,0.0,0.0,0.0
1583762860097608879,729,1583762860056889921,imu,-0.0226440597326,-0.00317383045331,-0.00476074544713,0.999756574631,0.0,0.0,0.0,0.0,0.0,0.0,0.0,0.0,0.0,0.0,0.0,0.0,0.0,0.0,0.0,0.0,0.0,0.0,0.0,0.0,0.0,-0.0156250055879,0.0,0.0117187537253,0.0,0.0,0.0,0.0,0.0,0.0,0.0,0.0,0.0
1583762860153229390,730,1583762860116889921,imu,-0.0226440597326,-0.00311279529706,-0.00469971029088,0.999756574631,0.0,0.0,0.0,0.0,0.0,0.0,0.0,0.0,0.0,0.0,0.0,0.0,0.0,0.0,0.0,0.0,0.0,0.0,0.0,0.0,0.0,-0.0156250055879,0.0,0.0117187537253,0.0,0.0,0.0,0.0,0.0,0.0,0.0,0.0,0.0
1583762860198221314,731,1583762860156889921,imu,-0.0226440597326,-0.00311279529706,-0.00469971029088,0.999756574631,0.0,0.0,0.0,0.0,0.0,0.0,0.0,0.0,0.0,0.0,0.0,0.0,0.0,0.0,0.0,0.0,0.0,0.0,0.0,0.0,0.0,-0.00781250279397,0.0,-0.0273437593132,0.0,0.0,0.0,0.0,0.0,0.0,0.0,0.0,0.0
1583762860255888250,732,1583762860217889921,imu,-0.0226440597326,-0.00299072475173,-0.00469971029088,0.999756574631,0.0,0.0,0.0,0.0,0.0,0.0,0.0,0.0,0.0,0.0,0.0,0.0,0.0,0.0,0.0,0.0,0.0,0.0,0.0,0.0,0.0,-0.00781250279397,0.0,-0.0273437593132,0.0,0.0,0.0,0.0,0.0,0.0,0.0,0.0,0.0
1583762860296106228,733,1583762860257889921,imu,-0.0226440597326,-0.00299072475173,-0.00469971029088,0.999756574631,0.0,0.0,0.0,0.0,0.0,0.0,0.0,0.0,0.0,0.0,0.0,0.0,0.0,0.0,0.0,0.0,0.0,0.0,0.0,0.0,0.0,0.0312500111759,0.0,0.0117187537253,0.0,0.0,0.0,0.0,0.0,0.0,0.0,0.0,0.0
1583762860354641161,734,1583762860316889921,imu,-0.0227050948888,-0.00286865443923,-0.00469971029088,0.999756574631,0.0,0.0,0.0,0.0,0.0,0.0,0.0,0.0,0.0,0.0,0.0,0.0,0.0,0.0,0.0,0.0,0.0,0.0,0.0,0.0,0.0,0.0312500111759,0.0,0.0117187537253,0.0,0.0,0.0,0.0,0.0,0.0,0.0,0.0,0.0
1583762860401470700,735,1583762860356889921,imu,-0.0227050948888,-0.00286865443923,-0.00469971029088,0.999756574631,0.0,0.0,0.0,0.0,0.0,0.0,0.0,0.0,0.0,0.0,0.0,0.0,0.0,0.0,0.0,0.0,0.0,0.0,0.0,0.0,0.0,-0.00781250279397,0.0,0.0117187537253,0.0,0.0,0.0,0.0,0.0,0.0,0.0,0.0,0.0
1583762860462644159,736,1583762860416889921,imu,-0.0226440597326,-0.00280761928298,-0.00469971029088,0.999756574631,0.0,0.0,0.0,0.0,0.0,0.0,0.0,0.0,0.0,0.0,0.0,0.0,0.0,0.0,0.0,0.0,0.0,0.0,0.0,0.0,0.0,-0.00781250279397,0.0,0.0117187537253,0.0,0.0,0.0,0.0,0.0,0.0,0.0,0.0,0.0
1583762860497201581,737,1583762860456889921,imu,-0.0226440597326,-0.00280761928298,-0.00469971029088,0.999756574631,0.0,0.0,0.0,0.0,0.0,0.0,0.0,0.0,0.0,0.0,0.0,0.0,0.0,0.0,0.0,0.0,0.0,0.0,0.0,0.0,0.0,-0.00781250279397,0.0,-0.0273437593132,0.0,0.0,0.0,0.0,0.0,0.0,0.0,0.0,0.0
1583762860556109895,738,1583762860517889921,imu,-0.0226440597326,-0.0027465838939,-0.00469971029088,0.999756574631,0.0,0.0,0.0,0.0,0.0,0.0,0.0,0.0,0.0,0.0,0.0,0.0,0.0,0.0,0.0,0.0,0.0,0.0,0.0,0.0,0.0,-0.00781250279397,0.0,-0.0273437593132,0.0,0.0,0.0,0.0,0.0,0.0,0.0,0.0,0.0
1583762860599353768,739,1583762860557889921,imu,-0.0226440597326,-0.0027465838939,-0.00469971029088,0.999756574631,0.0,0.0,0.0,0.0,0.0,0.0,0.0,0.0,0.0,0.0,0.0,0.0,0.0,0.0,0.0,0.0,0.0,0.0,0.0,0.0,0.0,-0.00781250279397,0.0,0.0117187537253,0.0,0.0,0.0,0.0,0.0,0.0,0.0,0.0,0.0
1583762860653615325,740,1583762860616889921,imu,-0.0225830245763,-0.00268554873765,-0.00469971029088,0.999756574631,0.0,0.0,0.0,0.0,0.0,0.0,0.0,0.0,0.0,0.0,0.0,0.0,0.0,0.0,0.0,0.0,0.0,0.0,0.0,0.0,0.0,-0.00781250279397,0.0,0.0117187537253,0.0,0.0,0.0,0.0,0.0,0.0,0.0,0.0,0.0
1583762860704598457,741,1583762860656889921,imu,-0.0225830245763,-0.00268554873765,-0.00469971029088,0.999756574631,0.0,0.0,0.0,0.0,0.0,0.0,0.0,0.0,0.0,0.0,0.0,0.0,0.0,0.0,0.0,0.0,0.0,0.0,0.0,0.0,0.0,0.0312500111759,-0.00781250279397,-0.0273437593132,0.0,0.0,0.0,0.0,0.0,0.0,0.0,0.0,0.0
1583762860755391281,742,1583762860716889921,imu,-0.0226440597326,-0.0026245135814,-0.00469971029088,0.999756574631,0.0,0.0,0.0,0.0,0.0,0.0,0.0,0.0,0.0,0.0,0.0,0.0,0.0,0.0,0.0,0.0,0.0,0.0,0.0,0.0,0.0,0.0312500111759,-0.00781250279397,-0.0273437593132,0.0,0.0,0.0,0.0,0.0,0.0,0.0,0.0,0.0
1583762860799744734,743,1583762860756889921,imu,-0.0226440597326,-0.0026245135814,-0.00469971029088,0.999756574631,0.0,0.0,0.0,0.0,0.0,0.0,0.0,0.0,0.0,0.0,0.0,0.0,0.0,0.0,0.0,0.0,0.0,0.0,0.0,0.0,0.0,0.0234375074506,0.0,0.0117187537253,0.0,0.0,0.0,0.0,0.0,0.0,0.0,0.0,0.0
1583762860858453431,744,1583762860817889921,imu,-0.0225830245763,-0.00268554873765,-0.00469971029088,0.999756574631,0.0,0.0,0.0,0.0,0.0,0.0,0.0,0.0,0.0,0.0,0.0,0.0,0.0,0.0,0.0,0.0,0.0,0.0,0.0,0.0,0.0,0.0234375074506,0.0,0.0117187537253,0.0,0.0,0.0,0.0,0.0,0.0,0.0,0.0,0.0
1583762860898152789,745,1583762860857889921,imu,-0.0225830245763,-0.00268554873765,-0.00469971029088,0.999756574631,0.0,0.0,0.0,0.0,0.0,0.0,0.0,0.0,0.0,0.0,0.0,0.0,0.0,0.0,0.0,0.0,0.0,0.0,0.0,0.0,0.0,-0.0156250055879,-0.00781250279397,0.0117187537253,0.0,0.0,0.0,0.0,0.0,0.0,0.0,0.0,0.0
1583762860956493916,746,1583762860916889921,imu,-0.0226440597326,-0.0026245135814,-0.00476074544713,0.999756574631,0.0,0.0,0.0,0.0,0.0,0.0,0.0,0.0,0.0,0.0,0.0,0.0,0.0,0.0,0.0,0.0,0.0,0.0,0.0,0.0,0.0,-0.0156250055879,-0.00781250279397,0.0117187537253,0.0,0.0,0.0,0.0,0.0,0.0,0.0,0.0,0.0
1583762861001426842,747,1583762860956889921,imu,-0.0226440597326,-0.0026245135814,-0.00476074544713,0.999756574631,0.0,0.0,0.0,0.0,0.0,0.0,0.0,0.0,0.0,0.0,0.0,0.0,0.0,0.0,0.0,0.0,0.0,0.0,0.0,0.0,0.0,-0.00781250279397,0.0,0.0117187537253,0.0,0.0,0.0,0.0,0.0,0.0,0.0,0.0,0.0
1583762861057201142,748,1583762861016889921,imu,-0.0227050948888,-0.0025024432689,-0.00469971029088,0.999756574631,0.0,0.0,0.0,0.0,0.0,0.0,0.0,0.0,0.0,0.0,0.0,0.0,0.0,0.0,0.0,0.0,0.0,0.0,0.0,0.0,0.0,-0.00781250279397,0.0,0.0117187537253,0.0,0.0,0.0,0.0,0.0,0.0,0.0,0.0,0.0
1583762861098946452,749,1583762861056889921,imu,-0.0227050948888,-0.0025024432689,-0.00469971029088,0.999756574631,0.0,0.0,0.0,0.0,0.0,0.0,0.0,0.0,0.0,0.0,0.0,0.0,0.0,0.0,0.0,0.0,0.0,0.0,0.0,0.0,0.0,-0.00781250279397,0.0,0.0117187537253,0.0,0.0,0.0,0.0,0.0,0.0,0.0,0.0,0.0
1583762861156465954,750,1583762861117889921,imu,-0.0227050948888,-0.00244140811265,-0.00469971029088,0.999756574631,0.0,0.0,0.0,0.0,0.0,0.0,0.0,0.0,0.0,0.0,0.0,0.0,0.0,0.0,0.0,0.0,0.0,0.0,0.0,0.0,0.0,-0.00781250279397,0.0,0.0117187537253,0.0,0.0,0.0,0.0,0.0,0.0,0.0,0.0,0.0
1583762861198090779,751,1583762861156889921,imu,-0.0227050948888,-0.00244140811265,-0.00469971029088,0.999756574631,0.0,0.0,0.0,0.0,0.0,0.0,0.0,0.0,0.0,0.0,0.0,0.0,0.0,0.0,0.0,0.0,0.0,0.0,0.0,0.0,0.0,0.0,0.0,-0.0273437593132,0.0,0.0,0.0,0.0,0.0,0.0,0.0,0.0,0.0
1583762861255292369,752,1583762861216889921,imu,-0.0227050948888,-0.00238037272356,-0.00469971029088,0.999756574631,0.0,0.0,0.0,0.0,0.0,0.0,0.0,0.0,0.0,0.0,0.0,0.0,0.0,0.0,0.0,0.0,0.0,0.0,0.0,0.0,0.0,0.0,0.0,-0.0273437593132,0.0,0.0,0.0,0.0,0.0,0.0,0.0,0.0,0.0
1583762861301679653,753,1583762861256889921,imu,-0.0227050948888,-0.00238037272356,-0.00469971029088,0.999756574631,0.0,0.0,0.0,0.0,0.0,0.0,0.0,0.0,0.0,0.0,0.0,0.0,0.0,0.0,0.0,0.0,0.0,0.0,0.0,0.0,0.0,-0.00781250279397,0.0,0.0195312574506,0.0,0.0,0.0,0.0,0.0,0.0,0.0,0.0,0.0
1583762861362939973,754,1583762861318889921,imu,-0.0226440597326,-0.00238037272356,-0.00476074544713,0.999756574631,0.0,0.0,0.0,0.0,0.0,0.0,0.0,0.0,0.0,0.0,0.0,0.0,0.0,0.0,0.0,0.0,0.0,0.0,0.0,0.0,0.0,-0.00781250279397,0.0,0.0195312574506,0.0,0.0,0.0,0.0,0.0,0.0,0.0,0.0,0.0
1583762861402235255,755,1583762861357889921,imu,-0.0226440597326,-0.00238037272356,-0.00476074544713,0.999756574631,0.0,0.0,0.0,0.0,0.0,0.0,0.0,0.0,0.0,0.0,0.0,0.0,0.0,0.0,0.0,0.0,0.0,0.0,0.0,0.0,0.0,0.0312500111759,0.0,0.0117187537253,0.0,0.0,0.0,0.0,0.0,0.0,0.0,0.0,0.0
1583762861457055528,756,1583762861417889921,imu,-0.0226440597326,-0.00238037272356,-0.00476074544713,0.999756574631,0.0,0.0,0.0,0.0,0.0,0.0,0.0,0.0,0.0,0.0,0.0,0.0,0.0,0.0,0.0,0.0,0.0,0.0,0.0,0.0,0.0,0.0312500111759,0.0,0.0117187537253,0.0,0.0,0.0,0.0,0.0,0.0,0.0,0.0,0.0
1583762861500296994,757,1583762861457889921,imu,-0.0226440597326,-0.00238037272356,-0.00476074544713,0.999756574631,0.0,0.0,0.0,0.0,0.0,0.0,0.0,0.0,0.0,0.0,0.0,0.0,0.0,0.0,0.0,0.0,0.0,0.0,0.0,0.0,0.0,0.0156250055879,0.0,0.0117187537253,0.0,0.0,0.0,0.0,0.0,0.0,0.0,0.0,0.0
1583762861558090028,758,1583762861516889921,imu,-0.0227050948888,-0.00238037272356,-0.00476074544713,0.999756574631,0.0,0.0,0.0,0.0,0.0,0.0,0.0,0.0,0.0,0.0,0.0,0.0,0.0,0.0,0.0,0.0,0.0,0.0,0.0,0.0,0.0,0.0156250055879,0.0,0.0117187537253,0.0,0.0,0.0,0.0,0.0,0.0,0.0,0.0,0.0
1583762861601495616,759,1583762861556889921,imu,-0.0227050948888,-0.00238037272356,-0.00476074544713,0.999756574631,0.0,0.0,0.0,0.0,0.0,0.0,0.0,0.0,0.0,0.0,0.0,0.0,0.0,0.0,0.0,0.0,0.0,0.0,0.0,0.0,0.0,0.0156250055879,0.0,0.00390625139698,0.0,0.0,0.0,0.0,0.0,0.0,0.0,0.0,0.0
1583762861663323557,760,1583762861617889921,imu,-0.0227050948888,-0.00244140811265,-0.00476074544713,0.999756574631,0.0,0.0,0.0,0.0,0.0,0.0,0.0,0.0,0.0,0.0,0.0,0.0,0.0,0.0,0.0,0.0,0.0,0.0,0.0,0.0,0.0,0.0156250055879,0.0,0.00390625139698,0.0,0.0,0.0,0.0,0.0,0.0,0.0,0.0,0.0
1583762861701283638,761,1583762861659889921,imu,-0.0227050948888,-0.00244140811265,-0.00476074544713,0.999756574631,0.0,0.0,0.0,0.0,0.0,0.0,0.0,0.0,0.0,0.0,0.0,0.0,0.0,0.0,0.0,0.0,0.0,0.0,0.0,0.0,0.0,-0.0234375074506,0.0,-0.0273437593132,0.0,0.0,0.0,0.0,0.0,0.0,0.0,0.0,0.0
1583762861757714861,762,1583762861722181926,imu,-0.0227050948888,-0.0025024432689,-0.00476074544713,0.999756574631,0.0,0.0,0.0,0.0,0.0,0.0,0.0,0.0,0.0,0.0,0.0,0.0,0.0,0.0,0.0,0.0,0.0,0.0,0.0,0.0,0.0,-0.0234375074506,0.0,-0.0273437593132,0.0,0.0,0.0,0.0,0.0,0.0,0.0,0.0,0.0
1583762861799913564,763,1583762861762181926,imu,-0.0227050948888,-0.0025024432689,-0.00476074544713,0.999756574631,0.0,0.0,0.0,0.0,0.0,0.0,0.0,0.0,0.0,0.0,0.0,0.0,0.0,0.0,0.0,0.0,0.0,0.0,0.0,0.0,0.0,0.0156250055879,0.0,0.0117187537253,0.0,0.0,0.0,0.0,0.0,0.0,0.0,0.0,0.0
1583762861860259637,764,1583762861822181926,imu,-0.0227050948888,-0.00256347842515,-0.00476074544713,0.999756574631,0.0,0.0,0.0,0.0,0.0,0.0,0.0,0.0,0.0,0.0,0.0,0.0,0.0,0.0,0.0,0.0,0.0,0.0,0.0,0.0,0.0,0.0156250055879,0.0,0.0117187537253,0.0,0.0,0.0,0.0,0.0,0.0,0.0,0.0,0.0
1583762861901420766,765,1583762861862181926,imu,-0.0227050948888,-0.00256347842515,-0.00476074544713,0.999756574631,0.0,0.0,0.0,0.0,0.0,0.0,0.0,0.0,0.0,0.0,0.0,0.0,0.0,0.0,0.0,0.0,0.0,0.0,0.0,0.0,0.0,0.00781250279397,0.0,0.0117187537253,0.0,0.0,0.0,0.0,0.0,0.0,0.0,0.0,0.0
1583762861955120466,766,1583762861923181926,imu,-0.0227050948888,-0.00268554873765,-0.00476074544713,0.999756574631,0.0,0.0,0.0,0.0,0.0,0.0,0.0,0.0,0.0,0.0,0.0,0.0,0.0,0.0,0.0,0.0,0.0,0.0,0.0,0.0,0.0,0.00781250279397,0.0,0.0117187537253,0.0,0.0,0.0,0.0,0.0,0.0,0.0,0.0,0.0
1583762862000268207,767,1583762861962181926,imu,-0.0227050948888,-0.00268554873765,-0.00476074544713,0.999756574631,0.0,0.0,0.0,0.0,0.0,0.0,0.0,0.0,0.0,0.0,0.0,0.0,0.0,0.0,0.0,0.0,0.0,0.0,0.0,0.0,0.0,0.00781250279397,0.0,0.0117187537253,0.0,0.0,0.0,0.0,0.0,0.0,0.0,0.0,0.0
1583762862057761747,768,1583762862022181926,imu,-0.0227050948888,-0.0027465838939,-0.00476074544713,0.999756574631,0.0,0.0,0.0,0.0,0.0,0.0,0.0,0.0,0.0,0.0,0.0,0.0,0.0,0.0,0.0,0.0,0.0,0.0,0.0,0.0,0.0,0.00781250279397,0.0,0.0117187537253,0.0,0.0,0.0,0.0,0.0,0.0,0.0,0.0,0.0
1583762862097796858,769,1583762862062181926,imu,-0.0227050948888,-0.0027465838939,-0.00476074544713,0.999756574631,0.0,0.0,0.0,0.0,0.0,0.0,0.0,0.0,0.0,0.0,0.0,0.0,0.0,0.0,0.0,0.0,0.0,0.0,0.0,0.0,0.0,0.00781250279397,0.0,0.0117187537253,0.0,0.0,0.0,0.0,0.0,0.0,0.0,0.0,0.0
1583762862157190489,770,1583762862122181926,imu,-0.0226440597326,-0.00292968959548,-0.00354004162364,0.999756574631,0.0,0.0,0.0,0.0,0.0,0.0,0.0,0.0,0.0,0.0,0.0,0.0,0.0,0.0,0.0,0.0,0.0,0.0,0.0,0.0,0.0,0.00781250279397,0.0,0.0117187537253,0.0,0.0,0.0,0.0,0.0,0.0,0.0,0.0,0.0
1583762862202976494,771,1583762862162181926,imu,-0.0226440597326,-0.00292968959548,-0.00354004162364,0.999756574631,0.0,0.0,0.0,0.0,0.0,0.0,0.0,0.0,0.0,0.0,0.0,0.0,0.0,0.0,0.0,0.0,0.0,0.0,0.0,0.0,0.0,0.0429687649012,0.0,0.0117187537253,0.0,0.0,0.0,0.0,0.0,0.0,0.0,0.0,0.0
1583762862261757514,772,1583762862223181926,imu,-0.0227661300451,-0.00317383045331,0.00402832310647,0.999756574631,0.0,0.0,0.0,0.0,0.0,0.0,0.0,0.0,0.0,0.0,0.0,0.0,0.0,0.0,0.0,0.0,0.0,0.0,0.0,0.0,0.0,0.0429687649012,0.0,0.0117187537253,0.0,0.0,0.0,0.0,0.0,0.0,0.0,0.0,0.0
1583762862303270616,773,1583762862263181926,imu,-0.0227661300451,-0.00317383045331,0.00402832310647,0.999756574631,0.0,0.0,0.0,0.0,0.0,0.0,0.0,0.0,0.0,0.0,0.0,0.0,0.0,0.0,0.0,0.0,0.0,0.0,0.0,0.0,0.0,0.203125074506,-0.0156250055879,-0.0351562611759,0.0,0.0,0.0,0.0,0.0,0.0,0.0,0.0,0.0
1583762862357976334,774,1583762862323181926,imu,-0.0226440597326,-0.00390625279397,0.0134277436882,0.999634504318,0.0,0.0,0.0,0.0,0.0,0.0,0.0,0.0,0.0,0.0,0.0,0.0,0.0,0.0,0.0,0.0,0.0,0.0,0.0,0.0,0.0,0.203125074506,-0.0156250055879,-0.0351562611759,0.0,0.0,0.0,0.0,0.0,0.0,0.0,0.0,0.0
1583762862401635300,775,1583762862363181926,imu,-0.0226440597326,-0.00390625279397,0.0134277436882,0.999634504318,0.0,0.0,0.0,0.0,0.0,0.0,0.0,0.0,0.0,0.0,0.0,0.0,0.0,0.0,0.0,0.0,0.0,0.0,0.0,0.0,0.0,0.00390625139698,0.164062559605,0.0507812686265,0.0,0.0,0.0,0.0,0.0,0.0,0.0,0.0,0.0
1583762862459940379,776,1583762862422181926,imu,-0.0227050948888,-0.00469971029088,0.0235595870763,0.999451398849,0.0,0.0,0.0,0.0,0.0,0.0,0.0,0.0,0.0,0.0,0.0,0.0,0.0,0.0,0.0,0.0,0.0,0.0,0.0,0.0,0.0,0.00390625139698,0.164062559605,0.0507812686265,0.0,0.0,0.0,0.0,0.0,0.0,0.0,0.0,0.0
1583762862517750980,777,1583762862462181926,imu,-0.0227050948888,-0.00469971029088,0.0235595870763,0.999451398849,0.0,0.0,0.0,0.0,0.0,0.0,0.0,0.0,0.0,0.0,0.0,0.0,0.0,0.0,0.0,0.0,0.0,0.0,0.0,0.0,0.0,-0.171875059605,0.0,-0.0273437593132,0.0,0.0,0.0,0.0,0.0,0.0,0.0,0.0,0.0
1583762862563097077,778,1583762862523181926,imu,-0.0227050948888,-0.00524902716279,0.0340576432645,0.999146223068,0.0,0.0,0.0,0.0,0.0,0.0,0.0,0.0,0.0,0.0,0.0,0.0,0.0,0.0,0.0,0.0,0.0,0.0,0.0,0.0,0.0,-0.171875059605,0.0,-0.0273437593132,0.0,0.0,0.0,0.0,0.0,0.0,0.0,0.0,0.0
1583762862602244974,779,1583762862563181926,imu,-0.0227050948888,-0.00524902716279,0.0340576432645,0.999146223068,0.0,0.0,0.0,0.0,0.0,0.0,0.0,0.0,0.0,0.0,0.0,0.0,0.0,0.0,0.0,0.0,0.0,0.0,0.0,0.0,0.0,-0.0195312574506,0.0312500111759,0.0117187537253,0.0,0.0,0.0,0.0,0.0,0.0,0.0,0.0,0.0
1583762862661645457,780,1583762862622181926,imu,-0.0225830245763,-0.00549316778779,0.0446777679026,0.998718976974,0.0,0.0,0.0,0.0,0.0,0.0,0.0,0.0,0.0,0.0,0.0,0.0,0.0,0.0,0.0,0.0,0.0,0.0,0.0,0.0,0.0,-0.0195312574506,0.0312500111759,0.0117187537253,0.0,0.0,0.0,0.0,0.0,0.0,0.0,0.0,0.0
1583762862700600452,781,1583762862662181926,imu,-0.0225830245763,-0.00549316778779,0.0446777679026,0.998718976974,0.0,0.0,0.0,0.0,0.0,0.0,0.0,0.0,0.0,0.0,0.0,0.0,0.0,0.0,0.0,0.0,0.0,0.0,0.0,0.0,0.0,-0.0703125223517,-0.0156250055879,-0.0273437593132,0.0,0.0,0.0,0.0,0.0,0.0,0.0,0.0,0.0
1583762862757670301,782,1583762862722181926,imu,-0.0223999191076,-0.0056762737222,0.0551758222282,0.998230695724,0.0,0.0,0.0,0.0,0.0,0.0,0.0,0.0,0.0,0.0,0.0,0.0,0.0,0.0,0.0,0.0,0.0,0.0,0.0,0.0,0.0,-0.0703125223517,-0.0156250055879,-0.0273437593132,0.0,0.0,0.0,0.0,0.0,0.0,0.0,0.0,0.0
1583762862805952139,783,1583762862762181926,imu,-0.0223999191076,-0.0056762737222,0.0551758222282,0.998230695724,0.0,0.0,0.0,0.0,0.0,0.0,0.0,0.0,0.0,0.0,0.0,0.0,0.0,0.0,0.0,0.0,0.0,0.0,0.0,0.0,0.0,0.0195312574506,0.0625000223517,0.0117187537253,0.0,0.0,0.0,0.0,0.0,0.0,0.0,0.0,0.0
1583762862862644500,784,1583762862823181926,imu,-0.0222778487951,-0.0056762737222,0.0659790486097,0.997559309006,0.0,0.0,0.0,0.0,0.0,0.0,0.0,0.0,0.0,0.0,0.0,0.0,0.0,0.0,0.0,0.0,0.0,0.0,0.0,0.0,0.0,0.0195312574506,0.0625000223517,0.0117187537253,0.0,0.0,0.0,0.0,0.0,0.0,0.0,0.0,0.0
1583762862901730480,785,1583762862863181926,imu,-0.0222778487951,-0.0056762737222,0.0659790486097,0.997559309006,0.0,0.0,0.0,0.0,0.0,0.0,0.0,0.0,0.0,0.0,0.0,0.0,0.0,0.0,0.0,0.0,0.0,0.0,0.0,0.0,0.0,0.0,-0.0585937723517,0.00390625139698,0.0,0.0,0.0,0.0,0.0,0.0,0.0,0.0,0.0
1583762862958724860,786,1583762862923181926,imu,-0.0222168136388,-0.00573730887845,0.0768433138728,0.996765851974,0.0,0.0,0.0,0.0,0.0,0.0,0.0,0.0,0.0,0.0,0.0,0.0,0.0,0.0,0.0,0.0,0.0,0.0,0.0,0.0,0.0,0.0,-0.0585937723517,0.00390625139698,0.0,0.0,0.0,0.0,0.0,0.0,0.0,0.0,0.0
1583762863003443287,787,1583762862962181926,imu,-0.0222168136388,-0.00573730887845,0.0768433138728,0.996765851974,0.0,0.0,0.0,0.0,0.0,0.0,0.0,0.0,0.0,0.0,0.0,0.0,0.0,0.0,0.0,0.0,0.0,0.0,0.0,0.0,0.0,0.00781250279397,0.0546875186265,0.00390625139698,0.0,0.0,0.0,0.0,0.0,0.0,0.0,0.0,0.0
1583762863060582806,788,1583762863022181926,imu,-0.0220337063074,-0.0057983440347,0.0874634385109,0.995911359787,0.0,0.0,0.0,0.0,0.0,0.0,0.0,0.0,0.0,0.0,0.0,0.0,0.0,0.0,0.0,0.0,0.0,0.0,0.0,0.0,0.0,0.00781250279397,0.0546875186265,0.00390625139698,0.0,0.0,0.0,0.0,0.0,0.0,0.0,0.0,0.0
1583762863102688245,789,1583762863062181926,imu,-0.0220337063074,-0.0057983440347,0.0874634385109,0.995911359787,0.0,0.0,0.0,0.0,0.0,0.0,0.0,0.0,0.0,0.0,0.0,0.0,0.0,0.0,0.0,0.0,0.0,0.0,0.0,0.0,0.0,0.0156250055879,-0.0234375074506,0.00390625139698,0.0,0.0,0.0,0.0,0.0,0.0,0.0,0.0,0.0
1583762863166820847,790,1583762863123181926,imu,-0.0219726711512,-0.0057983440347,0.0981445983052,0.994934797287,0.0,0.0,0.0,0.0,0.0,0.0,0.0,0.0,0.0,0.0,0.0,0.0,0.0,0.0,0.0,0.0,0.0,0.0,0.0,0.0,0.0,0.0156250055879,-0.0234375074506,0.00390625139698,0.0,0.0,0.0,0.0,0.0,0.0,0.0,0.0,0.0
1583762863204541234,791,1583762863163181926,imu,-0.0219726711512,-0.0057983440347,0.0981445983052,0.994934797287,0.0,0.0,0.0,0.0,0.0,0.0,0.0,0.0,0.0,0.0,0.0,0.0,0.0,0.0,0.0,0.0,0.0,0.0,0.0,0.0,0.0,-0.0234375074506,0.0546875186265,0.00390625139698,0.0,0.0,0.0,0.0,0.0,0.0,0.0,0.0,0.0
1583762863259300418,792,1583762863222181926,imu,-0.0217285305262,-0.00585937919095,0.109008863568,0.993775129318,0.0,0.0,0.0,0.0,0.0,0.0,0.0,0.0,0.0,0.0,0.0,0.0,0.0,0.0,0.0,0.0,0.0,0.0,0.0,0.0,0.0,-0.0234375074506,0.0546875186265,0.00390625139698,0.0,0.0,0.0,0.0,0.0,0.0,0.0,0.0,0.0
1583762863305866298,793,1583762863262181926,imu,-0.0217285305262,-0.00585937919095,0.109008863568,0.993775129318,0.0,0.0,0.0,0.0,0.0,0.0,0.0,0.0,0.0,0.0,0.0,0.0,0.0,0.0,0.0,0.0,0.0,0.0,0.0,0.0,0.0,0.0156250055879,-0.0234375074506,0.00390625139698,0.0,0.0,0.0,0.0,0.0,0.0,0.0,0.0,0.0
1583762863360514400,794,1583762863322181926,imu,-0.0216674953699,-0.00585937919095,0.119690023363,0.992554426193,0.0,0.0,0.0,0.0,0.0,0.0,0.0,0.0,0.0,0.0,0.0,0.0,0.0,0.0,0.0,0.0,0.0,0.0,0.0,0.0,0.0,0.0156250055879,-0.0234375074506,0.00390625139698,0.0,0.0,0.0,0.0,0.0,0.0,0.0,0.0,0.0
1583762863401603982,795,1583762863362181926,imu,-0.0216674953699,-0.00585937919095,0.119690023363,0.992554426193,0.0,0.0,0.0,0.0,0.0,0.0,0.0,0.0,0.0,0.0,0.0,0.0,0.0,0.0,0.0,0.0,0.0,0.0,0.0,0.0,0.0,-0.0234375074506,0.0156250055879,0.00390625139698,0.0,0.0,0.0,0.0,0.0,0.0,0.0,0.0,0.0
1583762863464743862,796,1583762863423181926,imu,-0.0214843899012,-0.00598144950345,0.130127042532,0.991272687912,0.0,0.0,0.0,0.0,0.0,0.0,0.0,0.0,0.0,0.0,0.0,0.0,0.0,0.0,0.0,0.0,0.0,0.0,0.0,0.0,0.0,-0.0234375074506,0.0156250055879,0.00390625139698,0.0,0.0,0.0,0.0,0.0,0.0,0.0,0.0,0.0
1583762863503144579,797,1583762863464181926,imu,-0.0214843899012,-0.00598144950345,0.130127042532,0.991272687912,0.0,0.0,0.0,0.0,0.0,0.0,0.0,0.0,0.0,0.0,0.0,0.0,0.0,0.0,0.0,0.0,0.0,0.0,0.0,0.0,0.0,-0.0156250055879,0.00781250279397,-0.0351562611759,0.0,0.0,0.0,0.0,0.0,0.0,0.0,0.0,0.0
1583762863562470651,798,1583762863523181926,imu,-0.0213012844324,-0.00610351981595,0.140808209777,0.989807844162,0.0,0.0,0.0,0.0,0.0,0.0,0.0,0.0,0.0,0.0,0.0,0.0,0.0,0.0,0.0,0.0,0.0,0.0,0.0,0.0,0.0,-0.0156250055879,0.00781250279397,-0.0351562611759,0.0,0.0,0.0,0.0,0.0,0.0,0.0,0.0,0.0
1583762863606368788,799,1583762863563181926,imu,-0.0213012844324,-0.00610351981595,0.140808209777,0.989807844162,0.0,0.0,0.0,0.0,0.0,0.0,0.0,0.0,0.0,0.0,0.0,0.0,0.0,0.0,0.0,0.0,0.0,0.0,0.0,0.0,0.0,0.0156250055879,-0.0312500111759,0.0117187537253,0.0,0.0,0.0,0.0,0.0,0.0,0.0,0.0,0.0
1583762863658039236,800,1583762863623181926,imu,-0.0209961086512,-0.00622559059411,0.151428326964,0.988220930099,0.0,0.0,0.0,0.0,0.0,0.0,0.0,0.0,0.0,0.0,0.0,0.0,0.0,0.0,0.0,0.0,0.0,0.0,0.0,0.0,0.0,0.0156250055879,-0.0312500111759,0.0117187537253,0.0,0.0,0.0,0.0,0.0,0.0,0.0,0.0,0.0
1583762863705177518,801,1583762863663181926,imu,-0.0209961086512,-0.00622559059411,0.151428326964,0.988220930099,0.0,0.0,0.0,0.0,0.0,0.0,0.0,0.0,0.0,0.0,0.0,0.0,0.0,0.0,0.0,0.0,0.0,0.0,0.0,0.0,0.0,0.0156250055879,0.0156250055879,-0.0273437593132,0.0,0.0,0.0,0.0,0.0,0.0,0.0,0.0,0.0
1583762863761514686,802,1583762863723181926,imu,-0.0208740383387,-0.00653076637536,0.161987423897,0.986572980881,0.0,0.0,0.0,0.0,0.0,0.0,0.0,0.0,0.0,0.0,0.0,0.0,0.0,0.0,0.0,0.0,0.0,0.0,0.0,0.0,0.0,0.0156250055879,0.0156250055879,-0.0273437593132,0.0,0.0,0.0,0.0,0.0,0.0,0.0,0.0,0.0
1583762863806727410,803,1583762863763181926,imu,-0.0208740383387,-0.00653076637536,0.161987423897,0.986572980881,0.0,0.0,0.0,0.0,0.0,0.0,0.0,0.0,0.0,0.0,0.0,0.0,0.0,0.0,0.0,0.0,0.0,0.0,0.0,0.0,0.0,0.0156250055879,0.0546875186265,-0.0273437593132,0.0,0.0,0.0,0.0,0.0,0.0,0.0,0.0,0.0
1583762863858794889,804,1583762863822181926,imu,-0.0205078274012,-0.00671387184411,0.172363400459,0.984802961349,0.0,0.0,0.0,0.0,0.0,0.0,0.0,0.0,0.0,0.0,0.0,0.0,0.0,0.0,0.0,0.0,0.0,0.0,0.0,0.0,0.0,0.0156250055879,0.0546875186265,-0.0273437593132,0.0,0.0,0.0,0.0,0.0,0.0,0.0,0.0,0.0
1583762863907608717,805,1583762863862181926,imu,-0.0205078274012,-0.00671387184411,0.172363400459,0.984802961349,0.0,0.0,0.0,0.0,0.0,0.0,0.0,0.0,0.0,0.0,0.0,0.0,0.0,0.0,0.0,0.0,0.0,0.0,0.0,0.0,0.0,-0.0234375074506,0.00781250279397,0.0507812686265,0.0,0.0,0.0,0.0,0.0,0.0,0.0,0.0,0.0
1583762863962163997,806,1583762863921181926,imu,-0.0203247219324,-0.00695801293477,0.182983532548,0.982910871506,0.0,0.0,0.0,0.0,0.0,0.0,0.0,0.0,0.0,0.0,0.0,0.0,0.0,0.0,0.0,0.0,0.0,0.0,0.0,0.0,0.0,-0.0234375074506,0.00781250279397,0.0507812686265,0.0,0.0,0.0,0.0,0.0,0.0,0.0,0.0,0.0
1583762864004439121,807,1583762863961181926,imu,-0.0203247219324,-0.00695801293477,0.182983532548,0.982910871506,0.0,0.0,0.0,0.0,0.0,0.0,0.0,0.0,0.0,0.0,0.0,0.0,0.0,0.0,0.0,0.0,0.0,0.0,0.0,0.0,0.0,0.0507812686265,0.0468750149012,0.0117187537253,0.0,0.0,0.0,0.0,0.0,0.0,0.0,0.0,0.0
1583762864064679249,808,1583762864023181926,imu,-0.0200195461512,-0.00708008324727,0.19335950911,0.980896711349,0.0,0.0,0.0,0.0,0.0,0.0,0.0,0.0,0.0,0.0,0.0,0.0,0.0,0.0,0.0,0.0,0.0,0.0,0.0,0.0,0.0,0.0507812686265,0.0468750149012,0.0117187537253,0.0,0.0,0.0,0.0,0.0,0.0,0.0,0.0,0.0
1583762864105933972,809,1583762864063181926,imu,-0.0200195461512,-0.00708008324727,0.19335950911,0.980896711349,0.0,0.0,0.0,0.0,0.0,0.0,0.0,0.0,0.0,0.0,0.0,0.0,0.0,0.0,0.0,0.0,0.0,0.0,0.0,0.0,0.0,0.0234375074506,-0.00781250279397,0.00390625139698,0.0,0.0,0.0,0.0,0.0,0.0,0.0,0.0,0.0
1583762864164031528,810,1583762864123181926,imu,-0.0199585109949,-0.00714111840352,0.20330825448,0.978882551193,0.0,0.0,0.0,0.0,0.0,0.0,0.0,0.0,0.0,0.0,0.0,0.0,0.0,0.0,0.0,0.0,0.0,0.0,0.0,0.0,0.0,0.0234375074506,-0.00781250279397,0.00390625139698,0.0,0.0,0.0,0.0,0.0,0.0,0.0,0.0,0.0
1583762864317678981,811,1583762864165181926,imu,-0.0199585109949,-0.00714111840352,0.20330825448,0.978882551193,0.0,0.0,0.0,0.0,0.0,0.0,0.0,0.0,0.0,0.0,0.0,0.0,0.0,0.0,0.0,0.0,0.0,0.0,0.0,0.0,0.0,0.0156250055879,0.0625000223517,0.0117187537253,0.0,0.0,0.0,0.0,0.0,0.0,0.0,0.0,0.0
1583762864331030830,812,1583762864227069911,imu,-0.0197143703699,-0.00720215355977,0.212951809168,0.976807355881,0.0,0.0,0.0,0.0,0.0,0.0,0.0,0.0,0.0,0.0,0.0,0.0,0.0,0.0,0.0,0.0,0.0,0.0,0.0,0.0,0.0,0.0156250055879,0.0625000223517,0.0117187537253,0.0,0.0,0.0,0.0,0.0,0.0,0.0,0.0,0.0
1583762864331040897,813,1583762864267069911,imu,-0.0197143703699,-0.00720215355977,0.212951809168,0.976807355881,0.0,0.0,0.0,0.0,0.0,0.0,0.0,0.0,0.0,0.0,0.0,0.0,0.0,0.0,0.0,0.0,0.0,0.0,0.0,0.0,0.0,0.0507812686265,-0.0234375074506,0.00390625139698,0.0,0.0,0.0,0.0,0.0,0.0,0.0,0.0,0.0
1583762864361968300,814,1583762864328069911,imu,-0.0194702278823,-0.00732422387227,0.222656413913,0.974671125412,0.0,0.0,0.0,0.0,0.0,0.0,0.0,0.0,0.0,0.0,0.0,0.0,0.0,0.0,0.0,0.0,0.0,0.0,0.0,0.0,0.0,0.0507812686265,-0.0234375074506,0.00390625139698,0.0,0.0,0.0,0.0,0.0,0.0,0.0,0.0,0.0
1583762864408350821,815,1583762864367069911,imu,-0.0194702278823,-0.00732422387227,0.222656413913,0.974671125412,0.0,0.0,0.0,0.0,0.0,0.0,0.0,0.0,0.0,0.0,0.0,0.0,0.0,0.0,0.0,0.0,0.0,0.0,0.0,0.0,0.0,0.00781250279397,-0.0156250055879,0.00390625139698,0.0,0.0,0.0,0.0,0.0,0.0,0.0,0.0,0.0
1583762864463482424,816,1583762864427069911,imu,-0.0192871224135,-0.00750732980669,0.23278824985,0.972290754318,0.0,0.0,0.0,0.0,0.0,0.0,0.0,0.0,0.0,0.0,0.0,0.0,0.0,0.0,0.0,0.0,0.0,0.0,0.0,0.0,0.0,0.00781250279397,-0.0156250055879,0.00390625139698,0.0,0.0,0.0,0.0,0.0,0.0,0.0,0.0,0.0
1583762864524946124,817,1583762864467069911,imu,-0.0192871224135,-0.00750732980669,0.23278824985,0.972290754318,0.0,0.0,0.0,0.0,0.0,0.0,0.0,0.0,0.0,0.0,0.0,0.0,0.0,0.0,0.0,0.0,0.0,0.0,0.0,0.0,0.0,0.0351562611759,0.0234375074506,-0.0273437593132,0.0,0.0,0.0,0.0,0.0,0.0,0.0,0.0,0.0
1583762864559625959,818,1583762864527069911,imu,-0.0190429817885,-0.00775147043169,0.242675960064,0.969910383224,0.0,0.0,0.0,0.0,0.0,0.0,0.0,0.0,0.0,0.0,0.0,0.0,0.0,0.0,0.0,0.0,0.0,0.0,0.0,0.0,0.0,0.0351562611759,0.0234375074506,-0.0273437593132,0.0,0.0,0.0,0.0,0.0,0.0,0.0,0.0,0.0
1583762864609131826,819,1583762864567069911,imu,-0.0190429817885,-0.00775147043169,0.242675960064,0.969910383224,0.0,0.0,0.0,0.0,0.0,0.0,0.0,0.0,0.0,0.0,0.0,0.0,0.0,0.0,0.0,0.0,0.0,0.0,0.0,0.0,0.0,-0.00781250279397,-0.0156250055879,0.0117187537253,0.0,0.0,0.0,0.0,0.0,0.0,0.0,0.0,0.0
1583762864663399901,820,1583762864627069911,imu,-0.0187988411635,-0.00793457590044,0.252807796001,0.967285871506,0.0,0.0,0.0,0.0,0.0,0.0,0.0,0.0,0.0,0.0,0.0,0.0,0.0,0.0,0.0,0.0,0.0,0.0,0.0,0.0,0.0,-0.00781250279397,-0.0156250055879,0.0117187537253,0.0,0.0,0.0,0.0,0.0,0.0,0.0,0.0,0.0
1583762864704023780,821,1583762864667069911,imu,-0.0187988411635,-0.00793457590044,0.252807796001,0.967285871506,0.0,0.0,0.0,0.0,0.0,0.0,0.0,0.0,0.0,0.0,0.0,0.0,0.0,0.0,0.0,0.0,0.0,0.0,0.0,0.0,0.0,-0.00781250279397,-0.0156250055879,0.0117187537253,0.0,0.0,0.0,0.0,0.0,0.0,0.0,0.0,0.0
1583762864762957353,822,1583762864727069911,imu,-0.0185547005385,-0.00817871652544,0.263000667095,0.964600324631,0.0,0.0,0.0,0.0,0.0,0.0,0.0,0.0,0.0,0.0,0.0,0.0,0.0,0.0,0.0,0.0,0.0,0.0,0.0,0.0,0.0,-0.00781250279397,-0.0156250055879,0.0117187537253,0.0,0.0,0.0,0.0,0.0,0.0,0.0,0.0,0.0
1583762864813991631,823,1583762864767069911,imu,-0.0185547005385,-0.00817871652544,0.263000667095,0.964600324631,0.0,0.0,0.0,0.0,0.0,0.0,0.0,0.0,0.0,0.0,0.0,0.0,0.0,0.0,0.0,0.0,0.0,0.0,0.0,0.0,0.0,-0.00781250279397,0.0234375074506,0.0117187537253,0.0,0.0,0.0,0.0,0.0,0.0,0.0,0.0,0.0
1583762864871600629,824,1583762864828069911,imu,-0.018432630226,-0.00842285715044,0.273559778929,0.961670637131,0.0,0.0,0.0,0.0,0.0,0.0,0.0,0.0,0.0,0.0,0.0,0.0,0.0,0.0,0.0,0.0,0.0,0.0,0.0,0.0,0.0,-0.00781250279397,0.0234375074506,0.0117187537253,0.0,0.0,0.0,0.0,0.0,0.0,0.0,0.0,0.0
1583762864904576245,825,1583762864866069911,imu,-0.018432630226,-0.00842285715044,0.273559778929,0.961670637131,0.0,0.0,0.0,0.0,0.0,0.0,0.0,0.0,0.0,0.0,0.0,0.0,0.0,0.0,0.0,0.0,0.0,0.0,0.0,0.0,0.0,0.0195312574506,0.0234375074506,0.00390625139698,0.0,0.0,0.0,0.0,0.0,0.0,0.0,0.0,0.0
1583762864963567955,826,1583762864928069911,imu,-0.018188489601,-0.00866699870676,0.283569544554,0.958740949631,0.0,0.0,0.0,0.0,0.0,0.0,0.0,0.0,0.0,0.0,0.0,0.0,0.0,0.0,0.0,0.0,0.0,0.0,0.0,0.0,0.0,0.0195312574506,0.0234375074506,0.00390625139698,0.0,0.0,0.0,0.0,0.0,0.0,0.0,0.0,0.0
1583762865008670416,827,1583762864968069911,imu,-0.018188489601,-0.00866699870676,0.283569544554,0.958740949631,0.0,0.0,0.0,0.0,0.0,0.0,0.0,0.0,0.0,0.0,0.0,0.0,0.0,0.0,0.0,0.0,0.0,0.0,0.0,0.0,0.0,-0.125000044703,-0.0234375074506,0.00390625139698,0.0,0.0,0.0,0.0,0.0,0.0,0.0,0.0,0.0
1583762865086150985,828,1583762865027069911,imu,-0.017944348976,-0.00885010417551,0.293457239866,0.95575016737,0.0,0.0,0.0,0.0,0.0,0.0,0.0,0.0,0.0,0.0,0.0,0.0,0.0,0.0,0.0,0.0,0.0,0.0,0.0,0.0,0.0,-0.125000044703,-0.0234375074506,0.00390625139698,0.0,0.0,0.0,0.0,0.0,0.0,0.0,0.0,0.0
1583762865113390621,829,1583762865067069911,imu,-0.017944348976,-0.00885010417551,0.293457239866,0.95575016737,0.0,0.0,0.0,0.0,0.0,0.0,0.0,0.0,0.0,0.0,0.0,0.0,0.0,0.0,0.0,0.0,0.0,0.0,0.0,0.0,0.0,-0.0468750149012,-0.0312500111759,-0.0351562611759,0.0,0.0,0.0,0.0,0.0,0.0,0.0,0.0,0.0
1583762865164709553,830,1583762865128069911,imu,-0.017700208351,-0.00897217448801,0.302795618773,0.95282047987,0.0,0.0,0.0,0.0,0.0,0.0,0.0,0.0,0.0,0.0,0.0,0.0,0.0,0.0,0.0,0.0,0.0,0.0,0.0,0.0,0.0,-0.0468750149012,-0.0312500111759,-0.0351562611759,0.0,0.0,0.0,0.0,0.0,0.0,0.0,0.0,0.0
1583762865208213891,831,1583762865166069911,imu,-0.017700208351,-0.00897217448801,0.302795618773,0.95282047987,0.0,0.0,0.0,0.0,0.0,0.0,0.0,0.0,0.0,0.0,0.0,0.0,0.0,0.0,0.0,0.0,0.0,0.0,0.0,0.0,0.0,0.0273437593132,0.00781250279397,0.0117187537253,0.0,0.0,0.0,0.0,0.0,0.0,0.0,0.0,0.0
1583762865264603107,832,1583762865227069911,imu,-0.017456067726,-0.00915527995676,0.309875696898,0.950562179089,0.0,0.0,0.0,0.0,0.0,0.0,0.0,0.0,0.0,0.0,0.0,0.0,0.0,0.0,0.0,0.0,0.0,0.0,0.0,0.0,0.0,0.0273437593132,0.00781250279397,0.0117187537253,0.0,0.0,0.0,0.0,0.0,0.0,0.0,0.0,0.0
1583762865305614434,833,1583762865267069911,imu,-0.017456067726,-0.00915527995676,0.309875696898,0.950562179089,0.0,0.0,0.0,0.0,0.0,0.0,0.0,0.0,0.0,0.0,0.0,0.0,0.0,0.0,0.0,0.0,0.0,0.0,0.0,0.0,0.0,-0.183593809605,0.0390625149012,-0.0195312574506,0.0,0.0,0.0,0.0,0.0,0.0,0.0,0.0,0.0
1583762865383892282,834,1583762865328069911,imu,-0.0173339974135,-0.00903320964426,0.312622308731,0.949646651745,0.0,0.0,0.0,0.0,0.0,0.0,0.0,0.0,0.0,0.0,0.0,0.0,0.0,0.0,0.0,0.0,0.0,0.0,0.0,0.0,0.0,-0.183593809605,0.0390625149012,-0.0195312574506,0.0,0.0,0.0,0.0,0.0,0.0,0.0,0.0,0.0
1583762865411556390,835,1583762865368069911,imu,-0.0173339974135,-0.00903320964426,0.312622308731,0.949646651745,0.0,0.0,0.0,0.0,0.0,0.0,0.0,0.0,0.0,0.0,0.0,0.0,0.0,0.0,0.0,0.0,0.0,0.0,0.0,0.0,0.0,-0.136718794703,-0.0390625149012,0.0195312574506,0.0,0.0,0.0,0.0,0.0,0.0,0.0,0.0,0.0
1583762865472215425,836,1583762865428069911,imu,-0.017456067726,-0.00872803386301,0.312988519669,0.949524581432,0.0,0.0,0.0,0.0,0.0,0.0,0.0,0.0,0.0,0.0,0.0,0.0,0.0,0.0,0.0,0.0,0.0,0.0,0.0,0.0,0.0,-0.136718794703,-0.0390625149012,0.0195312574506,0.0,0.0,0.0,0.0,0.0,0.0,0.0,0.0,0.0
1583762865506975916,837,1583762865468069911,imu,-0.017456067726,-0.00872803386301,0.312988519669,0.949524581432,0.0,0.0,0.0,0.0,0.0,0.0,0.0,0.0,0.0,0.0,0.0,0.0,0.0,0.0,0.0,0.0,0.0,0.0,0.0,0.0,0.0,0.0546875186265,0.0546875186265,0.0195312574506,0.0,0.0,0.0,0.0,0.0,0.0,0.0,0.0,0.0
1583762865564336471,838,1583762865528069911,imu,-0.0176391731948,-0.00830078683794,0.313171625137,0.949524581432,0.0,0.0,0.0,0.0,0.0,0.0,0.0,0.0,0.0,0.0,0.0,0.0,0.0,0.0,0.0,0.0,0.0,0.0,0.0,0.0,0.0,0.0546875186265,0.0546875186265,0.0195312574506,0.0,0.0,0.0,0.0,0.0,0.0,0.0,0.0,0.0
1583762865608384347,839,1583762865567069911,imu,-0.0176391731948,-0.00830078683794,0.313171625137,0.949524581432,0.0,0.0,0.0,0.0,0.0,0.0,0.0,0.0,0.0,0.0,0.0,0.0,0.0,0.0,0.0,0.0,0.0,0.0,0.0,0.0,0.0,0.121093794703,-0.0234375074506,0.0117187537253,0.0,0.0,0.0,0.0,0.0,0.0,0.0,0.0,0.0
1583762865661073617,840,1583762865627069911,imu,-0.017700208351,-0.00805664621294,0.31329369545,0.949463546276,0.0,0.0,0.0,0.0,0.0,0.0,0.0,0.0,0.0,0.0,0.0,0.0,0.0,0.0,0.0,0.0,0.0,0.0,0.0,0.0,0.0,0.121093794703,-0.0234375074506,0.0117187537253,0.0,0.0,0.0,0.0,0.0,0.0,0.0,0.0,0.0
1583762865711728121,841,1583762865667069911,imu,-0.017700208351,-0.00805664621294,0.31329369545,0.949463546276,0.0,0.0,0.0,0.0,0.0,0.0,0.0,0.0,0.0,0.0,0.0,0.0,0.0,0.0,0.0,0.0,0.0,0.0,0.0,0.0,0.0,0.0468750149012,0.0156250055879,0.0117187537253,0.0,0.0,0.0,0.0,0.0,0.0,0.0,0.0,0.0
1583762865770805342,842,1583762865727069911,imu,-0.017700208351,-0.00799561105669,0.313415765762,0.94940251112,0.0,0.0,0.0,0.0,0.0,0.0,0.0,0.0,0.0,0.0,0.0,0.0,0.0,0.0,0.0,0.0,0.0,0.0,0.0,0.0,0.0,0.0468750149012,0.0156250055879,0.0117187537253,0.0,0.0,0.0,0.0,0.0,0.0,0.0,0.0,0.0
1583762865805293608,843,1583762865767069911,imu,-0.017700208351,-0.00799561105669,0.313415765762,0.94940251112,0.0,0.0,0.0,0.0,0.0,0.0,0.0,0.0,0.0,0.0,0.0,0.0,0.0,0.0,0.0,0.0,0.0,0.0,0.0,0.0,0.0,0.0664062723517,-0.0234375074506,-0.0273437593132,0.0,0.0,0.0,0.0,0.0,0.0,0.0,0.0,0.0
1583762865863324569,844,1583762865827069911,imu,-0.0178222786635,-0.00805664621294,0.313537836075,0.949341475964,0.0,0.0,0.0,0.0,0.0,0.0,0.0,0.0,0.0,0.0,0.0,0.0,0.0,0.0,0.0,0.0,0.0,0.0,0.0,0.0,0.0,0.0664062723517,-0.0234375074506,-0.0273437593132,0.0,0.0,0.0,0.0,0.0,0.0,0.0,0.0,0.0
1583762865907880533,845,1583762865867069911,imu,-0.0178222786635,-0.00805664621294,0.313537836075,0.949341475964,0.0,0.0,0.0,0.0,0.0,0.0,0.0,0.0,0.0,0.0,0.0,0.0,0.0,0.0,0.0,0.0,0.0,0.0,0.0,0.0,0.0,0.0156250055879,0.0156250055879,0.0117187537253,0.0,0.0,0.0,0.0,0.0,0.0,0.0,0.0,0.0
1583762865964953758,846,1583762865927069911,imu,-0.0178833138198,-0.00817871652544,0.313598871231,0.949341475964,0.0,0.0,0.0,0.0,0.0,0.0,0.0,0.0,0.0,0.0,0.0,0.0,0.0,0.0,0.0,0.0,0.0,0.0,0.0,0.0,0.0,0.0156250055879,0.0156250055879,0.0117187537253,0.0,0.0,0.0,0.0,0.0,0.0,0.0,0.0,0.0
1583762866011597305,847,1583762865967069911,imu,-0.0178833138198,-0.00817871652544,0.313598871231,0.949341475964,0.0,0.0,0.0,0.0,0.0,0.0,0.0,0.0,0.0,0.0,0.0,0.0,0.0,0.0,0.0,0.0,0.0,0.0,0.0,0.0,0.0,0.0156250055879,-0.0156250055879,-0.0273437593132,0.0,0.0,0.0,0.0,0.0,0.0,0.0,0.0,0.0
1583762866063332376,848,1583762866027069911,imu,-0.0178222786635,-0.00830078683794,0.313659906387,0.949341475964,0.0,0.0,0.0,0.0,0.0,0.0,0.0,0.0,0.0,0.0,0.0,0.0,0.0,0.0,0.0,0.0,0.0,0.0,0.0,0.0,0.0,0.0156250055879,-0.0156250055879,-0.0273437593132,0.0,0.0,0.0,0.0,0.0,0.0,0.0,0.0,0.0
1583762866108743420,849,1583762866067069911,imu,-0.0178222786635,-0.00830078683794,0.313659906387,0.949341475964,0.0,0.0,0.0,0.0,0.0,0.0,0.0,0.0,0.0,0.0,0.0,0.0,0.0,0.0,0.0,0.0,0.0,0.0,0.0,0.0,0.0,0.0507812686265,-0.0234375074506,0.0117187537253,0.0,0.0,0.0,0.0,0.0,0.0,0.0,0.0,0.0
1583762866166300954,850,1583762866127069911,imu,-0.0178222786635,-0.00842285715044,0.313659906387,0.949341475964,0.0,0.0,0.0,0.0,0.0,0.0,0.0,0.0,0.0,0.0,0.0,0.0,0.0,0.0,0.0,0.0,0.0,0.0,0.0,0.0,0.0,0.0507812686265,-0.0234375074506,0.0117187537253,0.0,0.0,0.0,0.0,0.0,0.0,0.0,0.0,0.0
1583762866208459005,851,1583762866167069911,imu,-0.0178222786635,-0.00842285715044,0.313659906387,0.949341475964,0.0,0.0,0.0,0.0,0.0,0.0,0.0,0.0,0.0,0.0,0.0,0.0,0.0,0.0,0.0,0.0,0.0,0.0,0.0,0.0,0.0,-0.00781250279397,0.0234375074506,0.0117187537253,0.0,0.0,0.0,0.0,0.0,0.0,0.0,0.0,0.0
1583762866264705646,852,1583762866226069911,imu,-0.0178222786635,-0.00860596355051,0.313598871231,0.949341475964,0.0,0.0,0.0,0.0,0.0,0.0,0.0,0.0,0.0,0.0,0.0,0.0,0.0,0.0,0.0,0.0,0.0,0.0,0.0,0.0,0.0,-0.00781250279397,0.0234375074506,0.0117187537253,0.0,0.0,0.0,0.0,0.0,0.0,0.0,0.0,0.0
1583762866311330394,853,1583762866266069911,imu,-0.0178222786635,-0.00860596355051,0.313598871231,0.949341475964,0.0,0.0,0.0,0.0,0.0,0.0,0.0,0.0,0.0,0.0,0.0,0.0,0.0,0.0,0.0,0.0,0.0,0.0,0.0,0.0,0.0,0.0,0.0234375074506,-0.0273437593132,0.0,0.0,0.0,0.0,0.0,0.0,0.0,0.0,0.0
1583762866372150049,854,1583762866328069911,imu,-0.0177612435073,-0.00878906901926,0.313598871231,0.949341475964,0.0,0.0,0.0,0.0,0.0,0.0,0.0,0.0,0.0,0.0,0.0,0.0,0.0,0.0,0.0,0.0,0.0,0.0,0.0,0.0,0.0,0.0,0.0234375074506,-0.0273437593132,0.0,0.0,0.0,0.0,0.0,0.0,0.0,0.0,0.0
1583762866407677408,855,1583762866367069911,imu,-0.0177612435073,-0.00878906901926,0.313598871231,0.949341475964,0.0,0.0,0.0,0.0,0.0,0.0,0.0,0.0,0.0,0.0,0.0,0.0,0.0,0.0,0.0,0.0,0.0,0.0,0.0,0.0,0.0,0.0,-0.0156250055879,0.0117187537253,0.0,0.0,0.0,0.0,0.0,0.0,0.0,0.0,0.0
1583762866467724261,856,1583762866428069911,imu,-0.017700208351,-0.00891113933176,0.313598871231,0.949341475964,0.0,0.0,0.0,0.0,0.0,0.0,0.0,0.0,0.0,0.0,0.0,0.0,0.0,0.0,0.0,0.0,0.0,0.0,0.0,0.0,0.0,0.0,-0.0156250055879,0.0117187537253,0.0,0.0,0.0,0.0,0.0,0.0,0.0,0.0,0.0
1583762866509571344,857,1583762866468069911,imu,-0.017700208351,-0.00891113933176,0.313598871231,0.949341475964,0.0,0.0,0.0,0.0,0.0,0.0,0.0,0.0,0.0,0.0,0.0,0.0,0.0,0.0,0.0,0.0,0.0,0.0,0.0,0.0,0.0,0.0,-0.0234375074506,-0.0195312574506,0.0,0.0,0.0,0.0,0.0,0.0,0.0,0.0,0.0
1583762866569468730,858,1583762866527069911,imu,-0.017700208351,-0.00903320964426,0.313659906387,0.949341475964,0.0,0.0,0.0,0.0,0.0,0.0,0.0,0.0,0.0,0.0,0.0,0.0,0.0,0.0,0.0,0.0,0.0,0.0,0.0,0.0,0.0,0.0,-0.0234375074506,-0.0195312574506,0.0,0.0,0.0,0.0,0.0,0.0,0.0,0.0,0.0
1583762866612583259,859,1583762866568069911,imu,-0.017700208351,-0.00903320964426,0.313659906387,0.949341475964,0.0,0.0,0.0,0.0,0.0,0.0,0.0,0.0,0.0,0.0,0.0,0.0,0.0,0.0,0.0,0.0,0.0,0.0,0.0,0.0,0.0,-0.00781250279397,-0.00781250279397,0.0195312574506,0.0,0.0,0.0,0.0,0.0,0.0,0.0,0.0,0.0
1583762866670901125,860,1583762866627069911,imu,-0.0177612435073,-0.00915527995676,0.313598871231,0.949341475964,0.0,0.0,0.0,0.0,0.0,0.0,0.0,0.0,0.0,0.0,0.0,0.0,0.0,0.0,0.0,0.0,0.0,0.0,0.0,0.0,0.0,-0.00781250279397,-0.00781250279397,0.0195312574506,0.0,0.0,0.0,0.0,0.0,0.0,0.0,0.0,0.0
1583762866711122245,861,1583762866667069911,imu,-0.0177612435073,-0.00915527995676,0.313598871231,0.949341475964,0.0,0.0,0.0,0.0,0.0,0.0,0.0,0.0,0.0,0.0,0.0,0.0,0.0,0.0,0.0,0.0,0.0,0.0,0.0,0.0,0.0,0.0351562611759,-0.00781250279397,0.0117187537253,0.0,0.0,0.0,0.0,0.0,0.0,0.0,0.0,0.0
1583762866765453818,862,1583762866727069911,imu,-0.0178222786635,-0.00933838542551,0.313598871231,0.949341475964,0.0,0.0,0.0,0.0,0.0,0.0,0.0,0.0,0.0,0.0,0.0,0.0,0.0,0.0,0.0,0.0,0.0,0.0,0.0,0.0,0.0,0.0351562611759,-0.00781250279397,0.0117187537253,0.0,0.0,0.0,0.0,0.0,0.0,0.0,0.0,0.0
1583762866809433766,863,1583762866772811967,imu,-0.0178222786635,-0.00933838542551,0.313598871231,0.949341475964,0.0,0.0,0.0,0.0,0.0,0.0,0.0,0.0,0.0,0.0,0.0,0.0,0.0,0.0,0.0,0.0,0.0,0.0,0.0,0.0,0.0,0.0273437593132,-0.00781250279397,-0.0273437593132,0.0,0.0,0.0,0.0,0.0,0.0,0.0,0.0,0.0
1583762866867016388,864,1583762866832811967,imu,-0.0178222786635,-0.00952149089426,0.313598871231,0.949341475964,0.0,0.0,0.0,0.0,0.0,0.0,0.0,0.0,0.0,0.0,0.0,0.0,0.0,0.0,0.0,0.0,0.0,0.0,0.0,0.0,0.0,0.0273437593132,-0.00781250279397,-0.0273437593132,0.0,0.0,0.0,0.0,0.0,0.0,0.0,0.0,0.0
1583762866911740110,865,1583762866872811967,imu,-0.0178222786635,-0.00952149089426,0.313598871231,0.949341475964,0.0,0.0,0.0,0.0,0.0,0.0,0.0,0.0,0.0,0.0,0.0,0.0,0.0,0.0,0.0,0.0,0.0,0.0,0.0,0.0,0.0,0.0195312574506,0.0312500111759,0.0117187537253,0.0,0.0,0.0,0.0,0.0,0.0,0.0,0.0,0.0
1583762866967522737,866,1583762866932811967,imu,-0.0178222786635,-0.00964356120676,0.313537836075,0.949341475964,0.0,0.0,0.0,0.0,0.0,0.0,0.0,0.0,0.0,0.0,0.0,0.0,0.0,0.0,0.0,0.0,0.0,0.0,0.0,0.0,0.0,0.0195312574506,0.0312500111759,0.0117187537253,0.0,0.0,0.0,0.0,0.0,0.0,0.0,0.0,0.0
1583762867010427933,867,1583762866972811967,imu,-0.0178222786635,-0.00964356120676,0.313537836075,0.949341475964,0.0,0.0,0.0,0.0,0.0,0.0,0.0,0.0,0.0,0.0,0.0,0.0,0.0,0.0,0.0,0.0,0.0,0.0,0.0,0.0,0.0,0.0195312574506,-0.00781250279397,0.0117187537253,0.0,0.0,0.0,0.0,0.0,0.0,0.0,0.0,0.0
1583762867070730969,868,1583762867032811967,imu,-0.0177612435073,-0.00976563245058,0.313537836075,0.949341475964,0.0,0.0,0.0,0.0,0.0,0.0,0.0,0.0,0.0,0.0,0.0,0.0,0.0,0.0,0.0,0.0,0.0,0.0,0.0,0.0,0.0,0.0195312574506,-0.00781250279397,0.0117187537253,0.0,0.0,0.0,0.0,0.0,0.0,0.0,0.0,0.0
1583762867108490743,869,1583762867072811967,imu,-0.0177612435073,-0.00976563245058,0.313537836075,0.949341475964,0.0,0.0,0.0,0.0,0.0,0.0,0.0,0.0,0.0,0.0,0.0,0.0,0.0,0.0,0.0,0.0,0.0,0.0,0.0,0.0,0.0,0.0117187537253,-0.0156250055879,-0.0273437593132,0.0,0.0,0.0,0.0,0.0,0.0,0.0,0.0,0.0
1583762867167596173,870,1583762867131811967,imu,-0.017700208351,-0.00994873791933,0.313537836075,0.949341475964,0.0,0.0,0.0,0.0,0.0,0.0,0.0,0.0,0.0,0.0,0.0,0.0,0.0,0.0,0.0,0.0,0.0,0.0,0.0,0.0,0.0,0.0117187537253,-0.0156250055879,-0.0273437593132,0.0,0.0,0.0,0.0,0.0,0.0,0.0,0.0,0.0
1583762867211591357,871,1583762867171811967,imu,-0.017700208351,-0.00994873791933,0.313537836075,0.949341475964,0.0,0.0,0.0,0.0,0.0,0.0,0.0,0.0,0.0,0.0,0.0,0.0,0.0,0.0,0.0,0.0,0.0,0.0,0.0,0.0,0.0,0.0117187537253,-0.00781250279397,0.0117187537253,0.0,0.0,0.0,0.0,0.0,0.0,0.0,0.0,0.0
1583762867271530355,872,1583762867233811967,imu,-0.0176391731948,-0.0100708082318,0.313537836075,0.949341475964,0.0,0.0,0.0,0.0,0.0,0.0,0.0,0.0,0.0,0.0,0.0,0.0,0.0,0.0,0.0,0.0,0.0,0.0,0.0,0.0,0.0,0.0117187537253,-0.00781250279397,0.0117187537253,0.0,0.0,0.0,0.0,0.0,0.0,0.0,0.0,0.0
1583762867313116501,873,1583762867273811967,imu,-0.0176391731948,-0.0100708082318,0.313537836075,0.949341475964,0.0,0.0,0.0,0.0,0.0,0.0,0.0,0.0,0.0,0.0,0.0,0.0,0.0,0.0,0.0,0.0,0.0,0.0,0.0,0.0,0.0,0.0117187537253,0.0312500111759,-0.0273437593132,0.0,0.0,0.0,0.0,0.0,0.0,0.0,0.0,0.0
